Wavelength (nm)	Power (dBm)
1.525E-6	-78.999743
1.525045E-6	-79.051796
1.52509E-6	-79.605859
1.525135E-6	-80.765487
1.52518E-6	-83.825803
1.525225E-6	-86.718243
1.52527E-6	-88.850556
1.525315E-6	-120
1.52536E-6	-88.548036
1.525405E-6	-88.709549
1.52545E-6	-88.44664
1.525495E-6	-87.413627
1.52554E-6	-80.607804
1.525585E-6	-78.227522
1.52563E-6	-77.814645
1.525675E-6	-77.814645
1.52572E-6	-77.351822
1.525765E-6	-77.90485
1.52581E-6	-77.155693
1.525855E-6	-77.644716
1.5259E-6	-79.143527
1.525945E-6	-81.985963
1.52599E-6	-84.021952
1.526035E-6	-88.213108
1.52608E-6	-86.515004
1.526125E-6	-94.118404
1.52617E-6	-95.679933
1.526215E-6	-89.086848
1.52626E-6	-85.189876
1.526305E-6	-80.642409
1.52635E-6	-77.044329
1.526395E-6	-76.304131
1.52644E-6	-76.326441
1.526485E-6	-76.216021
1.52653E-6	-76.19427
1.526575E-6	-75.736514
1.52662E-6	-76.462761
1.526665E-6	-77.510464
1.52671E-6	-79.484616
1.526755E-6	-83.592205
1.5268E-6	-89.641702
1.526845E-6	-89.211808
1.52689E-6	-120
1.526935E-6	-90.226423
1.52698E-6	-89.613798
1.527025E-6	-86.74895
1.52707E-6	-80.107727
1.527115E-6	-76.403542
1.52716E-6	-75.246194
1.527205E-6	-75.121549
1.52725E-6	-74.890531
1.527295E-6	-74.93901
1.52734E-6	-74.863829
1.527385E-6	-74.869156
1.52743E-6	-75.625666
1.527475E-6	-77.886124
1.52752E-6	-81.086856
1.527565E-6	-85.100415
1.52761E-6	-93.304972
1.527655E-6	-92.195387
1.5277E-6	-91.55958
1.527745E-6	-91.01604
1.52779E-6	-88.754958
1.527835E-6	-80.9232
1.52788E-6	-76.13501
1.527925E-6	-74.686488
1.52797E-6	-74.267802
1.528015E-6	-74.089354
1.52806E-6	-74.19075
1.528105E-6	-73.992449
1.52815E-6	-74.011001
1.528195E-6	-74.198737
1.52824E-6	-75.802094
1.528285E-6	-78.867253
1.52833E-6	-84.529641
1.528375E-6	-88.917733
1.52842E-6	-91.240132
1.528465E-6	-93.226668
1.52851E-6	-83.308692
1.528555E-6	-92.395775
1.5286E-6	-82.226457
1.528645E-6	-75.785606
1.52869E-6	-74.071573
1.528735E-6	-73.362049
1.52878E-6	-73.251389
1.528825E-6	-73.106023
1.52887E-6	-73.096267
1.528915E-6	-73.032069
1.52896E-6	-73.390397
1.529005E-6	-74.607984
1.52905E-6	-78.032713
1.529095E-6	-82.462638
1.52914E-6	-86.595559
1.529185E-6	-92.116902
1.52923E-6	-90.56555
1.529275E-6	-97.180581
1.52932E-6	-90.094836
1.529365E-6	-83.559555
1.52941E-6	-76.888822
1.529455E-6	-73.897658
1.5295E-6	-72.919192
1.529545E-6	-72.620127
1.52959E-6	-72.654402
1.529635E-6	-72.560201
1.52968E-6	-72.579036
1.529725E-6	-72.678476
1.52977E-6	-73.73557
1.529815E-6	-75.797141
1.52986E-6	-79.434763
1.529905E-6	-85.892228
1.52995E-6	-90.82232
1.529995E-6	-89.694003
1.53004E-6	-91.025379
1.530085E-6	-90.170507
1.53013E-6	-84.898573
1.530175E-6	-79.193735
1.53022E-6	-74.199879
1.530265E-6	-72.700257
1.53031E-6	-72.349278
1.530355E-6	-72.140299
1.5304E-6	-72.186755
1.530445E-6	-72.281187
1.53049E-6	-72.174557
1.530535E-6	-72.846653
1.53058E-6	-74.710833
1.530625E-6	-78.471004
1.53067E-6	-82.579036
1.530715E-6	-91.387644
1.53076E-6	-89.726504
1.530805E-6	-90.165993
1.53085E-6	-91.275524
1.530895E-6	-88.057633
1.53094E-6	-80.6778
1.530985E-6	-75.025175
1.53103E-6	-72.901367
1.531075E-6	-72.047458
1.53112E-6	-72.098556
1.531165E-6	-72.015565
1.53121E-6	-71.937522
1.531255E-6	-71.909793
1.5313E-6	-72.072582
1.531345E-6	-73.523237
1.53139E-6	-77.151183
1.531435E-6	-81.617178
1.53148E-6	-85.892228
1.531525E-6	-91.080725
1.53157E-6	-91.575156
1.531615E-6	-89.653715
1.53166E-6	-89.419538
1.531705E-6	-82.76134
1.53175E-6	-76.088884
1.531795E-6	-73.310553
1.53184E-6	-72.187474
1.531885E-6	-71.945671
1.53193E-6	-71.952474
1.531975E-6	-71.938879
1.53202E-6	-72.013494
1.532065E-6	-72.334384
1.53211E-6	-72.953348
1.532155E-6	-74.920093
1.5322E-6	-78.480176
1.532245E-6	-85.514483
1.53229E-6	-89.956786
1.532335E-6	-88.501653
1.53238E-6	-88.623295
1.532425E-6	-88.610661
1.53247E-6	-85.833595
1.532515E-6	-79.333014
1.53256E-6	-74.377071
1.532605E-6	-72.618539
1.53265E-6	-72.129648
1.532695E-6	-72.247537
1.53274E-6	-71.991455
1.532785E-6	-72.029403
1.53283E-6	-72.133905
1.532875E-6	-72.638426
1.53292E-6	-74.273607
1.532965E-6	-77.8199
1.53301E-6	-82.072582
1.533055E-6	-87.547342
1.5331E-6	-88.860566
1.533145E-6	-95.482136
1.53319E-6	-91.715979
1.533235E-6	-86.003263
1.53328E-6	-83.497896
1.533325E-6	-76.0206
1.53337E-6	-73.554629
1.533415E-6	-72.834958
1.53346E-6	-72.569608
1.533505E-6	-72.672847
1.53355E-6	-72.56647
1.533595E-6	-72.838297
1.53364E-6	-72.898826
1.533685E-6	-73.948027
1.53373E-6	-76.373291
1.533775E-6	-80.082425
1.53382E-6	-85.236032
1.533865E-6	-97.079656
1.53391E-6	-87.274622
1.533955E-6	-120
1.534E-6	-87.587026
1.534045E-6	-84.139756
1.53409E-6	-79.115095
1.534135E-6	-75.01276
1.53418E-6	-73.623102
1.534225E-6	-73.120254
1.53427E-6	-73.430398
1.534315E-6	-73.357342
1.53436E-6	-73.291977
1.534405E-6	-73.32547
1.53445E-6	-73.842603
1.534495E-6	-75.434821
1.53454E-6	-78.50473
1.534585E-6	-83.701828
1.53463E-6	-87.759852
1.534675E-6	-92.588484
1.53472E-6	-92.881085
1.534765E-6	-88.938091
1.53481E-6	-87.896815
1.534855E-6	-82.882771
1.5349E-6	-77.004927
1.534945E-6	-74.90932
1.53499E-6	-74.169146
1.535035E-6	-73.965308
1.53508E-6	-74.134127
1.535125E-6	-74.152166
1.53517E-6	-74.173686
1.535215E-6	-74.408118
1.53526E-6	-75.254924
1.535305E-6	-78.08549
1.53535E-6	-82.379219
1.535395E-6	-87.044329
1.53544E-6	-89.147094
1.535485E-6	-87.87546
1.53553E-6	-89.027427
1.535575E-6	-120
1.53562E-6	-83.7202
1.535665E-6	-79.93962
1.53571E-6	-76.499459
1.535755E-6	-75.224447
1.5358E-6	-74.829361
1.535845E-6	-73.859469
1.53589E-6	-74.796475
1.535935E-6	-74.682657
1.53598E-6	-75.197055
1.536025E-6	-75.122961
1.53607E-6	-77.664962
1.536115E-6	-80.626326
1.53616E-6	-85.460704
1.536205E-6	-93.646168
1.53625E-6	-92.240257
1.536295E-6	-98.683813
1.53634E-6	-120
1.536385E-6	-120
1.53643E-6	-83.447655
1.536475E-6	-78.754958
1.53652E-6	-76.071273
1.536565E-6	-75.608253
1.53661E-6	-75.275361
1.536655E-6	-75.374523
1.5367E-6	-75.124374
1.536745E-6	-75.516029
1.53679E-6	-75.705707
1.536835E-6	-76.798537
1.53688E-6	-79.465374
1.536925E-6	-83.456309
1.53697E-6	-87.559704
1.537015E-6	-87.986029
1.53706E-6	-87.731424
1.537105E-6	-89.986991
1.53715E-6	-86.018863
1.537195E-6	-88.107905
1.53724E-6	-81.152613
1.537285E-6	-77.380238
1.53733E-6	-75.632015
1.537375E-6	-75.785606
1.53742E-6	-75.58462
1.537465E-6	-75.533075
1.53751E-6	-75.539291
1.537555E-6	-75.509847
1.5376E-6	-76.667543
1.537645E-6	-78.483238
1.53769E-6	-81.347775
1.537735E-6	-86.302277
1.53778E-6	-93.867926
1.537825E-6	-88.664611
1.53787E-6	-90.924812
1.537915E-6	-88.955129
1.53796E-6	-120
1.538005E-6	-83.346066
1.53805E-6	-79.023957
1.538095E-6	-76.437829
1.53814E-6	-76.001533
1.538185E-6	-76.214204
1.53823E-6	-75.705707
1.538275E-6	-75.575202
1.53832E-6	-75.848596
1.538365E-6	-75.985995
1.53841E-6	-77.066374
1.538455E-6	-79.006647
1.5385E-6	-82.763802
1.538545E-6	-86.974526
1.53859E-6	-120
1.538635E-6	-93.371478
1.53868E-6	-88.880657
1.538725E-6	-91.899692
1.53877E-6	-87.373117
1.538815E-6	-83.351701
1.53886E-6	-77.307206
1.538905E-6	-76.397854
1.53895E-6	-75.980827
1.538995E-6	-75.684754
1.53904E-6	-75.75445
1.539085E-6	-75.998075
1.53913E-6	-76.183435
1.539175E-6	-76.399749
1.53922E-6	-78.071539
1.539265E-6	-80.709389
1.53931E-6	-83.968556
1.539355E-6	-90.219565
1.5394E-6	-89.086848
1.539445E-6	-93.857357
1.53949E-6	-92.521999
1.539535E-6	-120
1.53958E-6	-86.605486
1.539625E-6	-79.295927
1.53967E-6	-76.959405
1.539715E-6	-75.697636
1.53976E-6	-75.91082
1.539805E-6	-75.590909
1.53985E-6	-75.480601
1.539895E-6	-75.534628
1.53994E-6	-75.805399
1.539985E-6	-76.443569
1.54003E-6	-79.090369
1.540075E-6	-82.55707
1.54012E-6	-85.798792
1.540165E-6	-91.929388
1.54021E-6	-92.228633
1.540255E-6	-89.295927
1.5403E-6	-90.256265
1.540345E-6	-85.497509
1.54039E-6	-82.627278
1.540435E-6	-78.341624
1.54048E-6	-75.668705
1.540525E-6	-75.775743
1.54057E-6	-75.344684
1.540615E-6	-75.506759
1.54066E-6	-75.257837
1.540705E-6	-75.539291
1.54075E-6	-75.747919
1.540795E-6	-77.539941
1.54084E-6	-79.434763
1.540885E-6	-85.221555
1.54093E-6	-120
1.540975E-6	-85.835259
1.54102E-6	-96.283781
1.541065E-6	-92.840802
1.54111E-6	-87.93444
1.541155E-6	-85.439378
1.5412E-6	-79.359166
1.541245E-6	-76.212388
1.54129E-6	-75.446982
1.541335E-6	-75.162701
1.54138E-6	-74.845236
1.541425E-6	-75.064026
1.54147E-6	-74.91605
1.541515E-6	-75.368539
1.54156E-6	-75.572068
1.541605E-6	-78.233301
1.54165E-6	-81.120453
1.541695E-6	-85.570501
1.54174E-6	-88.374356
1.541785E-6	-85.835259
1.54183E-6	-84.999008
1.541875E-6	-80.928575
1.54192E-6	-71.402015
1.541965E-6	-54.025242
1.54201E-6	-45.241836
1.542055E-6	-42.19035
1.5421E-6	-41.246493
1.542145E-6	-41.050197
1.54219E-6	-41.027579
1.542235E-6	-40.990869
1.54228E-6	-41.114274
1.542325E-6	-42.395021
1.54237E-6	-46.158259
1.542415E-6	-53.943718
1.54246E-6	-62.980005
1.542505E-6	-71.099704
1.54255E-6	-78.285661
1.542595E-6	-81.687063
1.54264E-6	-84.287571
1.542685E-6	-87.399286
1.54273E-6	-84.508741
1.542775E-6	-80.37536
1.54282E-6	-75.845258
1.542865E-6	-75.415132
1.54291E-6	-74.754741
1.542955E-6	-74.635678
1.543E-6	-74.591702
1.543045E-6	-74.35926
1.54309E-6	-74.828041
1.543135E-6	-75.065419
1.54318E-6	-77.088532
1.543225E-6	-79.129288
1.54327E-6	-84.262004
1.543315E-6	-86.655462
1.54336E-6	-88.526329
1.543405E-6	-90.827571
1.54345E-6	-83.602148
1.543495E-6	-74.260846
1.54354E-6	-59.266483
1.543585E-6	-47.90217
1.54363E-6	-42.953348
1.543675E-6	-41.478861
1.54372E-6	-41.184442
1.543765E-6	-41.133965
1.54381E-6	-41.118767
1.543855E-6	-41.173047
1.5439E-6	-41.967478
1.543945E-6	-44.943075
1.54399E-6	-51.190721
1.544035E-6	-62.404077
1.54408E-6	-68.90759
1.544125E-6	-76.468535
1.54417E-6	-81.146388
1.544215E-6	-84.256214
1.54426E-6	-86.212388
1.544305E-6	-88.544928
1.54435E-6	-80.456127
1.544395E-6	-76.903698
1.54444E-6	-75.223001
1.544485E-6	-74.682657
1.54453E-6	-74.205594
1.544575E-6	-74.385408
1.54462E-6	-74.264322
1.544665E-6	-74.463597
1.54471E-6	-74.293403
1.544755E-6	-75.877075
1.5448E-6	-78.548036
1.544845E-6	-81.436941
1.54489E-6	-84.514877
1.544935E-6	-86.480105
1.54498E-6	-86.671577
1.545025E-6	-84.042834
1.54507E-6	-77.079656
1.545115E-6	-64.112802
1.54516E-6	-50.296996
1.545205E-6	-43.84576
1.54525E-6	-41.667254
1.545295E-6	-41.162818
1.54534E-6	-41.082396
1.545385E-6	-41.04688
1.54543E-6	-41.076271
1.545475E-6	-41.467278
1.54552E-6	-43.427529
1.545565E-6	-48.517059
1.54561E-6	-57.772835
1.545655E-6	-66.480105
1.5457E-6	-73.755116
1.545745E-6	-79.570309
1.54579E-6	-84.391373
1.545835E-6	-85.785606
1.54588E-6	-86.309698
1.545925E-6	-82.657604
1.54597E-6	-78.353498
1.546015E-6	-75.40306
1.54606E-6	-74.330913
1.546105E-6	-74.219341
1.54615E-6	-74.163479
1.546195E-6	-74.15895
1.54624E-6	-74.289903
1.546285E-6	-74.378261
1.54633E-6	-75.410601
1.546375E-6	-77.31422
1.54642E-6	-80.930727
1.546465E-6	-85.812017
1.54651E-6	-87.235382
1.546555E-6	-89.535048
1.5466E-6	-84.989407
1.546645E-6	-81.500281
1.54669E-6	-71.643094
1.546735E-6	-55.134278
1.54678E-6	-46.441655
1.546825E-6	-42.353756
1.54687E-6	-41.274359
1.546915E-6	-41.080168
1.54696E-6	-41.07349
1.547005E-6	-41.035289
1.54705E-6	-41.179311
1.547095E-6	-42.313619
1.54714E-6	-45.825283
1.547185E-6	-53.004224
1.54723E-6	-61.993516
1.547275E-6	-70.53204
1.54732E-6	-77.744323
1.547365E-6	-82.081691
1.54741E-6	-85.241836
1.547455E-6	-85.893915
1.5475E-6	-83.808023
1.547545E-6	-80.7099
1.54759E-6	-76.183435
1.547635E-6	-74.601714
1.54768E-6	-74.62055
1.547725E-6	-74.148778
1.54777E-6	-74.641997
1.547815E-6	-74.321505
1.54786E-6	-74.325031
1.547905E-6	-74.452686
1.54795E-6	-76.010189
1.547995E-6	-79.118639
1.54804E-6	-82.668027
1.548085E-6	-85.506759
1.54813E-6	-87.173779
1.548175E-6	-87.597004
1.54822E-6	-83.931889
1.548265E-6	-76.591595
1.54831E-6	-62.326957
1.548355E-6	-49.370422
1.5484E-6	-43.392294
1.548445E-6	-41.519341
1.54849E-6	-41.081839
1.548535E-6	-41.03584
1.54858E-6	-41.002342
1.548625E-6	-41.030882
1.54867E-6	-41.47398
1.548715E-6	-43.616106
1.54876E-6	-48.9279
1.548805E-6	-58.728952
1.54885E-6	-66.9897
1.548895E-6	-74.17255
1.54894E-6	-79.558524
1.548985E-6	-84.119525
1.54903E-6	-85.991168
1.549075E-6	-86.022337
1.54912E-6	-83.005092
1.549165E-6	-78.53872
1.54921E-6	-75.359578
1.549255E-6	-74.420119
1.5493E-6	-74.136378
1.549345E-6	-74.218194
1.54939E-6	-74.163479
1.549435E-6	-74.17255
1.54948E-6	-74.174821
1.549525E-6	-74.85718
1.54957E-6	-76.959405
1.549615E-6	-80.296531
1.54966E-6	-85.125788
1.549705E-6	-88.138916
1.54975E-6	-89.321855
1.549795E-6	-88.23041
1.54984E-6	-81.557093
1.549885E-6	-72.609818
1.54993E-6	-56.018863
1.549975E-6	-46.78816
1.55002E-6	-42.445825
1.550065E-6	-41.31826
1.55011E-6	-41.13171
1.550155E-6	-41.097467
1.5502E-6	-41.099704
1.550245E-6	-41.14865
1.55029E-6	-41.972263
1.550335E-6	-44.89455
1.55038E-6	-51.276106
1.550425E-6	-60.227796
1.55047E-6	-68.992849
1.550515E-6	-76.792308
1.55056E-6	-80.854982
1.550605E-6	-83.411304
1.55065E-6	-87.411234
1.550695E-6	-85.377518
1.55074E-6	-81.7829
1.550785E-6	-76.710091
1.55083E-6	-74.70313
1.550875E-6	-74.112802
1.55092E-6	-74.06271
1.550965E-6	-74.011001
1.55101E-6	-74.277094
1.551055E-6	-73.719177
1.5511E-6	-74.233132
1.551145E-6	-75.410601
1.55119E-6	-78.645493
1.551235E-6	-80.954467
1.55128E-6	-85.234582
1.551325E-6	-90.286778
1.55137E-6	-86.409238
1.551415E-6	-84.713404
1.55146E-6	-79.310724
1.551505E-6	-68.315025
1.55155E-6	-52.007973
1.551595E-6	-44.513649
1.55164E-6	-41.919241
1.551685E-6	-41.27902
1.55173E-6	-41.157712
1.551775E-6	-41.133965
1.55182E-6	-41.12833
1.551865E-6	-41.3389
1.55191E-6	-42.844144
1.551955E-6	-46.955095
1.552E-6	-55.338741
1.552045E-6	-64.250432
1.55209E-6	-72.078185
1.552135E-6	-78.207355
1.55218E-6	-83.075938
1.552225E-6	-86.066003
1.55227E-6	-86.583677
1.552315E-6	-84.163479
1.55236E-6	-79.641702
1.552405E-6	-75.581478
1.55245E-6	-74.034029
1.552495E-6	-73.823707
1.55254E-6	-73.973975
1.552585E-6	-73.769576
1.55263E-6	-74.08824
1.552675E-6	-74.203307
1.55272E-6	-74.207882
1.552765E-6	-75.675117
1.55281E-6	-79.698052
1.552855E-6	-83.464016
1.5529E-6	-85.545515
1.552945E-6	-88.300318
1.55299E-6	-88.661419
1.553035E-6	-82.514244
1.55308E-6	-75.75445
1.553125E-6	-61.842895
1.55317E-6	-48.941493
1.553215E-6	-43.240385
1.55326E-6	-41.427278
1.553305E-6	-41.053517
1.55335E-6	-40.977251
1.553395E-6	-40.930188
1.55344E-6	-40.950682
1.553485E-6	-41.359044
1.55353E-6	-43.502758
1.553575E-6	-48.667805
1.55362E-6	-58.187282
1.553665E-6	-66.482037
1.55371E-6	-73.694704
1.553755E-6	-79.570309
1.5538E-6	-83.621102
1.553845E-6	-85.392525
1.55389E-6	-86.403542
1.553935E-6	-83.310553
1.55398E-6	-78.024438
1.554025E-6	-74.70313
1.55407E-6	-73.810111
1.554115E-6	-73.77786
1.55416E-6	-73.815335
1.554205E-6	-73.747905
1.55425E-6	-73.880644
1.554295E-6	-73.759243
1.55434E-6	-74.30509
1.554385E-6	-76.038007
1.55443E-6	-79.527251
1.554475E-6	-85.045944
1.55452E-6	-89.605859
1.554565E-6	-88.748442
1.55461E-6	-89.359166
1.554655E-6	-88.22175
1.5547E-6	-87.806775
1.554745E-6	-81.929388
1.55479E-6	-77.219327
1.554835E-6	-74.49894
1.55488E-6	-73.570411
1.554925E-6	-73.559555
1.55497E-6	-73.576344
1.555015E-6	-73.675427
1.55506E-6	-73.519329
1.555105E-6	-73.694704
1.55515E-6	-74.49527
1.555195E-6	-76.609463
1.55524E-6	-79.523358
1.555285E-6	-84.173686
1.55533E-6	-86.356366
1.555375E-6	-89.538952
1.55542E-6	-92.651202
1.555465E-6	-90.204061
1.55551E-6	-90.344691
1.555555E-6	-81.879561
1.5556E-6	-77.142177
1.555645E-6	-74.409317
1.55569E-6	-73.643152
1.555735E-6	-73.525192
1.55578E-6	-73.787198
1.555825E-6	-73.699791
1.55587E-6	-73.441895
1.555915E-6	-73.476569
1.55596E-6	-74.340342
1.556005E-6	-76.382722
1.55605E-6	-80.227338
1.556095E-6	-85.689581
1.55614E-6	-92.438966
1.556185E-6	-88.985966
1.55623E-6	-98.244882
1.556275E-6	-90.290955
1.55632E-6	-89.792245
1.556365E-6	-82.006595
1.55641E-6	-76.3865
1.556455E-6	-74.2159
1.5565E-6	-73.683533
1.556545E-6	-73.467875
1.55659E-6	-73.670368
1.556635E-6	-73.34044
1.55668E-6	-73.529106
1.556725E-6	-73.469805
1.55677E-6	-74.326207
1.556815E-6	-76.92504
1.55686E-6	-80.835461
1.556905E-6	-84.723701
1.55695E-6	-88.31208
1.556995E-6	-86.625407
1.55704E-6	-90.872467
1.557085E-6	-87.851562
1.55713E-6	-89.200955
1.557175E-6	-81.712757
1.55722E-6	-76.259853
1.557265E-6	-74.13863
1.55731E-6	-73.667336
1.557355E-6	-73.625103
1.5574E-6	-73.568435
1.557445E-6	-73.470771
1.55749E-6	-73.506651
1.557535E-6	-73.482376
1.55758E-6	-74.146521
1.557625E-6	-76.931463
1.55767E-6	-80.923737
1.557715E-6	-86.732546
1.55776E-6	-91.114274
1.557805E-6	-86.239708
1.55785E-6	-92.571178
1.557895E-6	-88.501653
1.55794E-6	-104.432152
1.557985E-6	-81.707606
1.55803E-6	-76.441655
1.558075E-6	-73.984832
1.55812E-6	-73.584267
1.558165E-6	-73.356401
1.55821E-6	-73.287346
1.558255E-6	-73.625103
1.5583E-6	-73.461124
1.558345E-6	-73.758211
1.55839E-6	-73.554629
1.558435E-6	-76.706021
1.55848E-6	-79.880069
1.558525E-6	-85.760991
1.55857E-6	-90.554186
1.558615E-6	-85.772461
1.55866E-6	-88.099486
1.558705E-6	-88.392314
1.55875E-6	-87.07301
1.558795E-6	-81.776357
1.55884E-6	-76.491707
1.558885E-6	-74.480623
1.55893E-6	-73.641143
1.558975E-6	-73.711004
1.55902E-6	-73.668346
1.559065E-6	-73.604139
1.55911E-6	-73.840499
1.559155E-6	-73.612113
1.5592E-6	-74.826721
1.559245E-6	-77.384992
1.55929E-6	-80.111736
1.559335E-6	-85.573635
1.55938E-6	-91.480693
1.559425E-6	-89.50782
1.55947E-6	-87.728849
1.559515E-6	-88.78112
1.55956E-6	-87.522722
1.559605E-6	-82.077484
1.55965E-6	-76.726411
1.559695E-6	-74.717262
1.55974E-6	-74.205594
1.559785E-6	-73.769576
1.55983E-6	-73.908326
1.559875E-6	-73.907258
1.55992E-6	-73.922234
1.559965E-6	-74.061603
1.56001E-6	-74.792545
1.560055E-6	-77.117508
1.5601E-6	-81.242444
1.560145E-6	-86.882461
1.56019E-6	-84.74696
1.560235E-6	-87.411234
1.56028E-6	-95.4546
1.560325E-6	-89.023957
1.56037E-6	-86.931463
1.560415E-6	-82.322506
1.56046E-6	-77.269987
1.560505E-6	-75.09199
1.56055E-6	-74.374692
1.560595E-6	-74.326207
1.56064E-6	-74.137504
1.560685E-6	-74.535807
1.56073E-6	-73.94695
1.560775E-6	-74.285241
1.56082E-6	-75.22011
1.560865E-6	-77.953375
1.56091E-6	-80.796679
1.560955E-6	-86.122543
1.561E-6	-120
1.561045E-6	-120
1.56109E-6	-88.850556
1.561135E-6	-87.642191
1.56118E-6	-91.085741
1.561225E-6	-82.218487
1.56127E-6	-76.281935
1.561315E-6	-75.40306
1.56136E-6	-74.925489
1.561405E-6	-74.806972
1.56145E-6	-74.470885
1.561495E-6	-74.528409
1.56154E-6	-74.549404
1.561585E-6	-74.853195
1.56163E-6	-75.168408
1.561675E-6	-77.503126
1.56172E-6	-80.437355
1.561765E-6	-84.822764
1.56181E-6	-90.369681
1.561855E-6	-93.349822
1.5619E-6	-90.369681
1.561945E-6	-89.730584
1.56199E-6	-99.446217
1.562035E-6	-85.934598
1.56208E-6	-78.461851
1.562125E-6	-76.621416
1.56217E-6	-75.597208
1.562215E-6	-75.120137
1.56226E-6	-74.993519
1.562305E-6	-75.158426
1.56235E-6	-74.859838
1.562395E-6	-75.145625
1.56244E-6	-75.743028
1.562485E-6	-77.867479
1.56253E-6	-80.424885
1.562575E-6	-85.831931
1.56262E-6	-89.04482
1.562665E-6	-88.190144
1.56271E-6	-85.955084
1.562755E-6	-86.577748
1.5628E-6	-88.745187
1.562845E-6	-85.224447
1.56289E-6	-80.30957
1.562935E-6	-76.589614
1.56298E-6	-75.797141
1.563025E-6	-75.364056
1.56307E-6	-75.575202
1.563115E-6	-75.413622
1.56316E-6	-75.237482
1.563205E-6	-75.702477
1.56325E-6	-76.217839
1.563295E-6	-78.043771
1.56334E-6	-80.751007
1.563385E-6	-86.298572
1.56343E-6	-86.786087
1.563475E-6	-89.446217
1.56352E-6	-94.514877
1.563565E-6	-92.993828
1.56361E-6	-93.910463
1.563655E-6	-87.703182
1.5637E-6	-79.800533
1.563745E-6	-78.096683
1.56379E-6	-76.302277
1.563835E-6	-75.865326
1.56388E-6	-76.507225
1.563925E-6	-75.675117
1.56397E-6	-76.416844
1.564015E-6	-76.154674
1.56406E-6	-76.708056
1.564105E-6	-77.833064
1.56415E-6	-80.695094
1.564195E-6	-86.542343
1.56424E-6	-87.316561
1.564285E-6	-94.270123
1.56433E-6	-91.723723
1.564375E-6	-85.56737
1.56442E-6	-120
1.564465E-6	-89.229957
1.56451E-6	-80.999061
1.564555E-6	-78.501653
1.5646E-6	-77.044329
1.564645E-6	-76.675615
1.56469E-6	-76.732546
1.564735E-6	-76.460838
1.56478E-6	-76.769543
1.564825E-6	-77.166988
1.56487E-6	-77.46662
1.564915E-6	-78.548036
1.56496E-6	-81.098585
1.565005E-6	-84.466025
1.56505E-6	-85.625666
1.565095E-6	-120
1.56514E-6	-90.417229
1.565185E-6	-100.001738
1.56523E-6	-94.459957
1.565275E-6	-88.680607
1.56532E-6	-83.694704
1.565365E-6	-79.562449
1.56541E-6	-77.675121
1.565455E-6	-77.068585
1.5655E-6	-77.469044
1.565545E-6	-77.33298
1.56559E-6	-77.775437
1.565635E-6	-77.408842
1.56568E-6	-77.859513
1.565725E-6	-79.108016
1.56577E-6	-80.887891
1.565815E-6	-84.121768
1.56586E-6	-101.602706
1.565905E-6	-87.891466
1.56595E-6	-90.131835
1.565995E-6	-88.968807
1.56604E-6	-88.551146
1.566085E-6	-89.100949
1.56613E-6	-83.627105
1.566175E-6	-81.100823
1.56622E-6	-78.37137
1.566265E-6	-77.644716
1.56631E-6	-78.17015
1.566355E-6	-78.489367
1.5664E-6	-77.817271
1.566445E-6	-77.749493
1.56649E-6	-78.495506
1.566535E-6	-78.931295
1.56658E-6	-81.245336
1.566625E-6	-84.639468
1.56667E-6	-97.780644
1.566715E-6	-95.282683
1.56676E-6	-120
1.566805E-6	-88.130437
1.56685E-6	-105.446982
1.566895E-6	-93.642148
1.56694E-6	-84.90663
1.566985E-6	-81.658337
1.56703E-6	-79.833845
1.567075E-6	-78.350526
1.56712E-6	-78.635966
1.567165E-6	-78.551146
1.56721E-6	-78.965384
1.567255E-6	-78.867253
1.5673E-6	-78.887375
1.567345E-6	-79.013563
1.56739E-6	-80.723217
1.567435E-6	-85.040396
1.56748E-6	-87.498241
1.567525E-6	-99.590023
1.56757E-6	-87.8199
1.567615E-6	-93.677452
1.56766E-6	-88.900841
1.567705E-6	-98.007935
1.56775E-6	-88.610661
1.567795E-6	-83.108688
1.56784E-6	-80.377254
1.567885E-6	-78.992849
1.56793E-6	-79.051796
1.567975E-6	-79.535048
1.56802E-6	-79.669786
1.568065E-6	-79.161392
1.56811E-6	-79.400581
1.568155E-6	-79.685915
1.5682E-6	-80.76238
1.568245E-6	-84.299243
1.56829E-6	-87.33298
1.568335E-6	-88.224635
1.56838E-6	-88.181564
1.568425E-6	-120
1.56847E-6	-93.096267
1.568515E-6	-95.077985
1.56856E-6	-94.667365
1.568605E-6	-85.207127
1.56865E-6	-81.159981
1.568695E-6	-80.088626
1.56874E-6	-80.100165
1.568785E-6	-80.162835
1.56883E-6	-79.909743
1.568875E-6	-79.884296
1.56892E-6	-80.816551
1.568965E-6	-80.003476
1.56901E-6	-81.445414
1.569055E-6	-84.996263
1.5691E-6	-87.754669
1.569145E-6	-95.944829
1.56919E-6	-90.389113
1.569235E-6	-94.447846
1.56928E-6	-88.965384
1.569325E-6	-120
1.56937E-6	-93.14527
1.569415E-6	-87.382615
1.56946E-6	-82.582183
1.569505E-6	-81.481304
1.56955E-6	-80.505124
1.569595E-6	-80.768596
1.56964E-6	-81.006173
1.569685E-6	-80.241089
1.56973E-6	-80.485653
1.569775E-6	-80.754623
1.56982E-6	-81.041908
1.569865E-6	-83.486251
1.56991E-6	-89.673812
1.569955E-6	-101.723077
1.57E-6	-95.885487
