Wavelength (nm)	Power (dBm)
1.525E-6	-49.488475
1.525045E-6	-49.362914
1.52509E-6	-49.601894
1.525135E-6	-50.236042
1.52518E-6	-51.133965
1.525225E-6	-51.4752
1.52527E-6	-51.480083
1.525315E-6	-51.403814
1.52536E-6	-51.322969
1.525405E-6	-51.233781
1.52545E-6	-50.906045
1.525495E-6	-49.792245
1.52554E-6	-48.356471
1.525585E-6	-47.476325
1.52563E-6	-47.10411
1.525675E-6	-46.888822
1.52572E-6	-46.675615
1.525765E-6	-46.466609
1.52581E-6	-46.311555
1.525855E-6	-46.483969
1.5259E-6	-47.517814
1.525945E-6	-49.020489
1.52599E-6	-49.995659
1.526035E-6	-50.170959
1.52608E-6	-50.135866
1.526125E-6	-50.078443
1.52617E-6	-49.995659
1.526215E-6	-49.694003
1.52626E-6	-48.309136
1.526305E-6	-46.247023
1.52635E-6	-44.918745
1.526395E-6	-44.447846
1.52644E-6	-44.246967
1.526485E-6	-44.091582
1.52653E-6	-43.968556
1.526575E-6	-43.819519
1.52662E-6	-43.995717
1.526665E-6	-45.087784
1.52671E-6	-47.126462
1.526755E-6	-48.712777
1.5268E-6	-49.115095
1.526845E-6	-49.097419
1.52689E-6	-49.04482
1.526935E-6	-48.999743
1.52698E-6	-48.709549
1.527025E-6	-46.920763
1.52707E-6	-44.420119
1.527115E-6	-42.758061
1.52716E-6	-42.19035
1.527205E-6	-41.971579
1.52725E-6	-41.856858
1.527295E-6	-41.743792
1.52734E-6	-41.63486
1.527385E-6	-41.761347
1.52743E-6	-42.69864
1.527475E-6	-44.89455
1.52752E-6	-47.318903
1.527565E-6	-48.288588
1.52761E-6	-48.431481
1.527655E-6	-48.374356
1.5277E-6	-48.317973
1.527745E-6	-48.195874
1.52779E-6	-46.695862
1.527835E-6	-43.632113
1.52788E-6	-41.47398
1.527925E-6	-40.650977
1.52797E-6	-40.443603
1.528015E-6	-40.351278
1.52806E-6	-40.259491
1.528105E-6	-40.253962
1.52815E-6	-40.278435
1.528195E-6	-40.939884
1.52824E-6	-42.949064
1.528285E-6	-45.946536
1.52833E-6	-47.715996
1.528375E-6	-48.071539
1.52842E-6	-48.065971
1.528465E-6	-48.046539
1.52851E-6	-47.999707
1.528555E-6	-46.92504
1.5286E-6	-43.791355
1.528645E-6	-41.158846
1.52869E-6	-39.931063
1.528735E-6	-39.629721
1.52878E-6	-39.578184
1.528825E-6	-39.538952
1.52887E-6	-39.523358
1.528915E-6	-39.476909
1.52896E-6	-39.93962
1.529005E-6	-41.604591
1.52905E-6	-44.62055
1.529095E-6	-47.173779
1.52914E-6	-47.891466
1.529185E-6	-47.942545
1.52923E-6	-47.830428
1.529275E-6	-47.14893
1.52932E-6	-43.779933
1.529365E-6	-31.200444
1.52941E-6	-21.600822
1.529455E-6	-17.685304
1.5295E-6	-16.201508
1.529545E-6	-15.850267
1.52959E-6	-15.77082
1.529635E-6	-15.687971
1.52968E-6	-15.721894
1.529725E-6	-16.615435
1.52977E-6	-19.637705
1.529815E-6	-26.495581
1.52986E-6	-36.718243
1.529905E-6	-44.253901
1.52995E-6	-47.026773
1.529995E-6	-47.762445
1.53004E-6	-47.93714
1.530085E-6	-47.891466
1.53013E-6	-46.241536
1.530175E-6	-42.79758
1.53022E-6	-40.45227
1.530265E-6	-39.503944
1.53031E-6	-39.284862
1.530355E-6	-39.233596
1.5304E-6	-39.248181
1.530445E-6	-39.219058
1.53049E-6	-39.262816
1.530535E-6	-39.909743
1.53058E-6	-41.865525
1.530625E-6	-45.083582
1.53067E-6	-47.428016
1.530715E-6	-47.991495
1.53076E-6	-48.010681
1.530805E-6	-47.827793
1.53085E-6	-46.893067
1.530895E-6	-41.725661
1.53094E-6	-27.223908
1.530985E-6	-20.305841
1.53103E-6	-17.363639
1.531075E-6	-16.483969
1.53112E-6	-16.294869
1.531165E-6	-16.219657
1.53121E-6	-16.20332
1.531255E-6	-16.356366
1.5313E-6	-17.731424
1.531345E-6	-21.579527
1.53139E-6	-29.746941
1.531435E-6	-39.698052
1.53148E-6	-45.52222
1.531525E-6	-47.452103
1.53157E-6	-47.918275
1.531615E-6	-48.029953
1.53166E-6	-47.726276
1.531705E-6	-45.334289
1.53175E-6	-41.980478
1.531795E-6	-40.032257
1.53184E-6	-39.389247
1.531885E-6	-39.292235
1.53193E-6	-39.299621
1.531975E-6	-39.295927
1.53202E-6	-39.292235
1.532065E-6	-39.427144
1.53211E-6	-40.34328
1.532155E-6	-42.676867
1.5322E-6	-45.958508
1.532245E-6	-47.749493
1.53229E-6	-48.088285
1.532335E-6	-48.057633
1.53238E-6	-47.809397
1.532425E-6	-46.462761
1.53247E-6	-38.732194
1.532515E-6	-24.897232
1.53256E-6	-19.248181
1.532605E-6	-17.013652
1.53265E-6	-16.437829
1.532695E-6	-16.365761
1.53274E-6	-16.371407
1.532785E-6	-16.441655
1.53283E-6	-16.813107
1.532875E-6	-18.658229
1.53292E-6	-23.318005
1.532965E-6	-32.577463
1.53301E-6	-41.527976
1.533055E-6	-46.322715
1.5331E-6	-47.780644
1.533145E-6	-48.082696
1.53319E-6	-48.17015
1.533235E-6	-47.68021
1.53328E-6	-45.041782
1.533325E-6	-41.972263
1.53337E-6	-40.315638
1.533415E-6	-39.788107
1.53346E-6	-39.746941
1.533505E-6	-39.763361
1.53355E-6	-39.829667
1.533595E-6	-39.922522
1.53364E-6	-40.154727
1.533685E-6	-41.257502
1.53373E-6	-43.692671
1.533775E-6	-46.777807
1.53382E-6	-48.099486
1.533865E-6	-48.31208
1.53391E-6	-48.256494
1.533955E-6	-47.915586
1.534E-6	-46.165437
1.534045E-6	-36.111886
1.53409E-6	-23.828948
1.534135E-6	-18.693447
1.53418E-6	-16.639407
1.534225E-6	-16.214204
1.53427E-6	-16.221476
1.534315E-6	-16.287474
1.53436E-6	-16.395959
1.534405E-6	-16.890944
1.53445E-6	-18.961963
1.534495E-6	-23.938337
1.53454E-6	-33.653212
1.534585E-6	-42.346295
1.53463E-6	-46.808939
1.534675E-6	-48.105097
1.53472E-6	-48.380334
1.534765E-6	-48.452718
1.53481E-6	-47.956087
1.534855E-6	-45.442418
1.5349E-6	-42.749055
1.534945E-6	-41.37809
1.53499E-6	-41.011652
1.535035E-6	-40.968015
1.53508E-6	-41.008911
1.535125E-6	-41.055178
1.53517E-6	-41.090204
1.535215E-6	-41.338309
1.53526E-6	-42.502637
1.535305E-6	-44.9485
1.53535E-6	-47.584535
1.535395E-6	-48.529423
1.53544E-6	-48.642315
1.535485E-6	-48.563608
1.53553E-6	-48.130437
1.535575E-6	-46.03452
1.53562E-6	-35.246194
1.535665E-6	-23.462088
1.53571E-6	-18.410347
1.535755E-6	-16.42637
1.5358E-6	-16.066003
1.535845E-6	-16.097716
1.53589E-6	-16.161846
1.535935E-6	-16.289321
1.53598E-6	-16.846595
1.536025E-6	-19.108016
1.53607E-6	-24.548166
1.536115E-6	-34.355707
1.53616E-6	-43.041682
1.536205E-6	-47.281584
1.53625E-6	-48.422411
1.536295E-6	-48.690233
1.53634E-6	-48.758219
1.536385E-6	-48.288588
1.53643E-6	-46.032777
1.536475E-6	-43.551677
1.53652E-6	-42.275316
1.536565E-6	-41.945671
1.53661E-6	-41.907771
1.536655E-6	-41.921945
1.5367E-6	-41.92465
1.536745E-6	-41.957924
1.53679E-6	-42.226457
1.536835E-6	-43.35452
1.53688E-6	-45.643149
1.536925E-6	-47.953375
1.53697E-6	-48.751699
1.537015E-6	-48.827287
1.53706E-6	-48.741935
1.537105E-6	-48.256494
1.53715E-6	-46.136794
1.537195E-6	-35.323919
1.53724E-6	-23.156934
1.537285E-6	-18.198741
1.53733E-6	-16.217839
1.537375E-6	-15.840256
1.53742E-6	-15.790546
1.537465E-6	-15.818645
1.53751E-6	-15.861975
1.537555E-6	-16.343249
1.5376E-6	-18.607508
1.537645E-6	-23.964226
1.53769E-6	-33.613111
1.537735E-6	-42.55707
1.53778E-6	-47.137681
1.537825E-6	-48.458805
1.53787E-6	-48.754958
1.537915E-6	-48.837244
1.53796E-6	-48.44664
1.538005E-6	-46.378947
1.53805E-6	-43.940488
1.538095E-6	-42.605859
1.53814E-6	-42.219211
1.538185E-6	-42.165252
1.53823E-6	-42.176707
1.538275E-6	-42.162393
1.53832E-6	-42.163822
1.538365E-6	-42.387489
1.53841E-6	-43.43327
1.538455E-6	-45.62091
1.5385E-6	-47.899492
1.538545E-6	-48.71924
1.53859E-6	-48.820662
1.538635E-6	-48.761484
1.53868E-6	-48.362425
1.538725E-6	-46.563945
1.53877E-6	-36.661499
1.538815E-6	-23.984832
1.53886E-6	-18.557372
1.538905E-6	-16.38461
1.53895E-6	-15.890541
1.538995E-6	-15.798792
1.53904E-6	-15.767541
1.539085E-6	-15.741399
1.53913E-6	-16.111886
1.539175E-6	-18.144578
1.53922E-6	-23.023348
1.539265E-6	-32.217764
1.53931E-6	-41.88291
1.539355E-6	-46.836102
1.5394E-6	-48.303256
1.539445E-6	-48.648673
1.53949E-6	-48.725712
1.539535E-6	-48.407337
1.53958E-6	-46.441655
1.539625E-6	-43.890206
1.53967E-6	-42.484899
1.539715E-6	-42.046067
1.53976E-6	-41.953155
1.539805E-6	-41.915189
1.53985E-6	-41.910467
1.539895E-6	-41.923973
1.53994E-6	-42.116195
1.539985E-6	-43.043432
1.54003E-6	-45.165554
1.540075E-6	-47.554755
1.54012E-6	-48.535619
1.540165E-6	-48.664611
1.54021E-6	-48.620133
1.540255E-6	-48.300318
1.5403E-6	-46.817279
1.540345E-6	-39.086848
1.54039E-6	-24.945787
1.540435E-6	-19.017025
1.54048E-6	-16.53647
1.540525E-6	-15.892228
1.54057E-6	-15.751184
1.540615E-6	-15.673513
1.54066E-6	-15.652715
1.540705E-6	-15.927791
1.54075E-6	-17.654827
1.540795E-6	-21.999018
1.54084E-6	-30.487596
1.540885E-6	-40.7099
1.54093E-6	-46.223296
1.540975E-6	-48.01893
1.54102E-6	-48.431481
1.541065E-6	-48.517059
1.54111E-6	-48.291518
1.541155E-6	-46.472388
1.5412E-6	-43.821613
1.541245E-6	-42.188193
1.54129E-6	-41.60522
1.541335E-6	-41.47398
1.54138E-6	-41.424866
1.541425E-6	-41.418841
1.54147E-6	-41.41102
1.541515E-6	-41.5422
1.54156E-6	-42.323248
1.541605E-6	-44.27942
1.54165E-6	-46.823545
1.541695E-6	-48.224635
1.54174E-6	-48.467951
1.541785E-6	-48.422411
1.54183E-6	-48.187282
1.541875E-6	-47.066374
1.54192E-6	-41.699248
1.541965E-6	-26.726411
1.54201E-6	-19.665762
1.542055E-6	-16.761294
1.5421E-6	-15.920995
1.542145E-6	-15.759355
1.54219E-6	-15.717032
1.542235E-6	-15.67191
1.54228E-6	-15.783961
1.542325E-6	-17.028963
1.54237E-6	-20.54827
1.542415E-6	-28.696662
1.54246E-6	-38.632794
1.542505E-6	-45.210009
1.54255E-6	-47.559704
1.542595E-6	-48.16161
1.54264E-6	-48.279812
1.542685E-6	-48.210231
1.54273E-6	-46.873996
1.542775E-6	-44.069356
1.54282E-6	-42.047458
1.542865E-6	-41.293035
1.54291E-6	-41.135657
1.542955E-6	-41.091321
1.543E-6	-41.083511
1.543045E-6	-41.075715
1.54309E-6	-41.124952
1.543135E-6	-41.667891
1.54318E-6	-43.29105
1.543225E-6	-45.951663
1.54327E-6	-47.81202
1.543315E-6	-48.244882
1.54336E-6	-48.244882
1.543405E-6	-48.113527
1.54345E-6	-47.380238
1.543495E-6	-44.035129
1.54354E-6	-30.337174
1.543585E-6	-21.199299
1.54363E-6	-17.408842
1.543675E-6	-16.078309
1.54372E-6	-15.841923
1.543765E-6	-15.780672
1.54381E-6	-15.744658
1.543855E-6	-15.813673
1.5439E-6	-16.528652
1.543945E-6	-19.270153
1.54399E-6	-25.581478
1.544035E-6	-35.570501
1.54408E-6	-43.7202
1.544125E-6	-46.991872
1.54417E-6	-47.939841
1.544215E-6	-48.138916
1.54426E-6	-48.164455
1.544305E-6	-47.380238
1.54435E-6	-44.748256
1.544395E-6	-42.302535
1.54444E-6	-41.16793
1.544485E-6	-40.877779
1.54453E-6	-40.850754
1.544575E-6	-40.860802
1.54462E-6	-40.863981
1.544665E-6	-40.887358
1.54471E-6	-41.17191
1.544755E-6	-42.449641
1.5448E-6	-44.898573
1.544845E-6	-47.307206
1.54489E-6	-48.079904
1.544935E-6	-48.158766
1.54498E-6	-48.093882
1.545025E-6	-47.703182
1.54507E-6	-45.756084
1.545115E-6	-34.782084
1.54516E-6	-23.308692
1.545205E-6	-18.350526
1.54525E-6	-16.378947
1.545295E-6	-15.973948
1.54534E-6	-15.90405
1.545385E-6	-15.877075
1.54543E-6	-15.883803
1.545475E-6	-16.252517
1.54552E-6	-18.201611
1.545565E-6	-22.870979
1.54561E-6	-31.77505
1.545655E-6	-41.365582
1.5457E-6	-46.250684
1.545745E-6	-47.726276
1.54579E-6	-48.057633
1.545835E-6	-48.141746
1.54588E-6	-47.870138
1.545925E-6	-45.848596
1.54597E-6	-43.09007
1.546015E-6	-41.420647
1.54606E-6	-40.90337
1.546105E-6	-40.802945
1.54615E-6	-40.79355
1.546195E-6	-40.805035
1.54624E-6	-40.813931
1.546285E-6	-40.953385
1.54633E-6	-41.719849
1.546375E-6	-43.767507
1.54642E-6	-46.395959
1.546465E-6	-47.864822
1.54651E-6	-48.138916
1.546555E-6	-48.124793
1.5466E-6	-47.94525
1.546645E-6	-46.998395
1.54669E-6	-41.968161
1.546735E-6	-27.46662
1.54678E-6	-20.171862
1.546825E-6	-17.13319
1.54687E-6	-16.165437
1.546915E-6	-16.017127
1.54696E-6	-15.984272
1.547005E-6	-15.984272
1.54705E-6	-16.111886
1.547095E-6	-17.155693
1.54714E-6	-20.332952
1.547185E-6	-27.670039
1.54723E-6	-37.830428
1.547275E-6	-44.799097
1.54732E-6	-47.302536
1.547365E-6	-47.950665
1.54741E-6	-48.091083
1.547455E-6	-48.06319
1.5475E-6	-47.002748
1.547545E-6	-44.201021
1.54759E-6	-41.964063
1.547635E-6	-41.027579
1.54768E-6	-40.808696
1.547725E-6	-40.786778
1.54777E-6	-40.81236
1.547815E-6	-40.833355
1.54786E-6	-40.872467
1.547905E-6	-41.241866
1.54795E-6	-42.66161
1.547995E-6	-45.181276
1.54804E-6	-47.399286
1.548085E-6	-48.071539
1.54813E-6	-48.138916
1.548175E-6	-48.068754
1.54822E-6	-47.637147
1.548265E-6	-45.531523
1.54831E-6	-34.092696
1.548355E-6	-23.110465
1.5484E-6	-18.389316
1.548445E-6	-16.561977
1.54849E-6	-16.126102
1.548535E-6	-16.104795
1.54858E-6	-16.071273
1.548625E-6	-16.097716
1.54867E-6	-16.468535
1.548715E-6	-18.45576
1.54876E-6	-23.401788
1.548805E-6	-32.564118
1.54885E-6	-41.716624
1.548895E-6	-46.418747
1.54894E-6	-47.74174
1.548985E-6	-48.007935
1.54903E-6	-48.082696
1.549075E-6	-47.772835
1.54912E-6	-45.795491
1.549165E-6	-43.117582
1.54921E-6	-41.486193
1.549255E-6	-40.945279
1.5493E-6	-40.83704
1.549345E-6	-40.820221
1.54939E-6	-40.833882
1.549435E-6	-40.816027
1.54948E-6	-40.928575
1.549525E-6	-41.665341
1.54957E-6	-43.535963
1.549615E-6	-46.307841
1.54966E-6	-47.798919
1.549705E-6	-48.093882
1.54975E-6	-48.06319
1.549795E-6	-47.888795
1.54984E-6	-47.020208
1.549885E-6	-42.802545
1.54993E-6	-28.572978
1.549975E-6	-20.478374
1.55002E-6	-17.194216
1.550065E-6	-16.172627
1.55011E-6	-16.006725
1.550155E-6	-15.980827
1.5502E-6	-15.967079
1.550245E-6	-16.008457
1.55029E-6	-16.755118
1.550335E-6	-19.558524
1.55038E-6	-25.970512
1.550425E-6	-36.377061
1.55047E-6	-43.945872
1.550515E-6	-46.981023
1.55056E-6	-47.801536
1.550605E-6	-47.969671
1.55065E-6	-47.999707
1.550695E-6	-47.228494
1.55074E-6	-44.649592
1.550785E-6	-42.259943
1.55083E-6	-41.067932
1.550875E-6	-40.783655
1.55092E-6	-40.742755
1.550965E-6	-40.717578
1.55101E-6	-40.695094
1.551055E-6	-40.719115
1.5511E-6	-40.958798
1.551145E-6	-42.118316
1.55119E-6	-44.49527
1.551235E-6	-46.994045
1.55128E-6	-47.896815
1.551325E-6	-48.010681
1.55137E-6	-47.947956
1.551415E-6	-47.682756
1.55146E-6	-46.337639
1.551505E-6	-39.079815
1.55155E-6	-25.176982
1.551595E-6	-19.186527
1.55164E-6	-16.751005
1.551685E-6	-16.097716
1.55173E-6	-16.003263
1.551775E-6	-15.973948
1.55182E-6	-15.946536
1.551865E-6	-16.136794
1.55191E-6	-17.50557
1.551955E-6	-21.253443
1.552E-6	-29.629721
1.552045E-6	-39.168559
1.55209E-6	-45.331324
1.552135E-6	-47.321246
1.55218E-6	-47.814645
1.552225E-6	-47.915586
1.55227E-6	-47.833064
1.552315E-6	-46.428277
1.55236E-6	-43.601153
1.552405E-6	-41.578902
1.55245E-6	-40.778457
1.552495E-6	-40.610302
1.55254E-6	-40.596828
1.552585E-6	-40.582402
1.55263E-6	-40.569014
1.552675E-6	-40.597824
1.55272E-6	-41.056285
1.552765E-6	-42.628869
1.55281E-6	-45.231684
1.552855E-6	-47.302536
1.5529E-6	-47.843624
1.552945E-6	-47.886124
1.55299E-6	-47.804155
1.553035E-6	-47.325936
1.55308E-6	-45.041782
1.553125E-6	-33.250471
1.55317E-6	-22.391254
1.553215E-6	-17.92635
1.55326E-6	-16.281935
1.553305E-6	-15.931193
1.55335E-6	-15.855281
1.553395E-6	-15.807053
1.55344E-6	-15.816987
1.553485E-6	-16.19427
1.55353E-6	-18.155925
1.553575E-6	-22.963648
1.55362E-6	-31.925326
1.553665E-6	-41.135657
1.55371E-6	-46.006725
1.553755E-6	-47.447275
1.5538E-6	-47.746907
1.553845E-6	-47.822529
1.55389E-6	-47.547342
1.553935E-6	-45.559552
1.55398E-6	-42.779422
1.554025E-6	-41.099704
1.55407E-6	-40.542853
1.554115E-6	-40.42297
1.55416E-6	-40.4072
1.554205E-6	-40.407678
1.55425E-6	-40.39339
1.554295E-6	-40.497812
1.55434E-6	-41.173047
1.554385E-6	-42.992963
1.55443E-6	-45.699249
1.554475E-6	-47.416022
1.55452E-6	-47.788467
1.554565E-6	-47.798919
1.55461E-6	-47.662426
1.554655E-6	-46.96372
1.5547E-6	-43.73865
1.554745E-6	-30.274269
1.55479E-6	-21.154878
1.554835E-6	-17.539941
1.55488E-6	-16.254349
1.554925E-6	-16.010189
1.55497E-6	-15.961934
1.555015E-6	-15.927791
1.55506E-6	-15.939711
1.555105E-6	-16.464684
1.55515E-6	-18.774565
1.555195E-6	-24.349791
1.55524E-6	-34.109445
1.555285E-6	-42.545348
1.55533E-6	-46.407338
1.555375E-6	-47.481185
1.55542E-6	-47.677665
1.555465E-6	-47.715996
1.55551E-6	-47.246886
1.555555E-6	-44.882503
1.5556E-6	-42.203314
1.555645E-6	-40.771189
1.55569E-6	-40.34234
1.555735E-6	-40.271032
1.55578E-6	-40.245682
1.555825E-6	-40.243385
1.55587E-6	-40.260413
1.555915E-6	-40.411018
1.55596E-6	-41.222257
1.556005E-6	-43.227582
1.55605E-6	-46.0206
1.556095E-6	-47.454519
1.55614E-6	-47.723704
1.556185E-6	-47.71343
1.55623E-6	-47.557229
1.556275E-6	-46.722325
1.55632E-6	-42.542228
1.556365E-6	-28.526329
1.55641E-6	-20.521743
1.556455E-6	-17.16925
1.5565E-6	-16.085356
1.556545E-6	-15.915904
1.55659E-6	-15.885487
1.556635E-6	-15.865326
1.55668E-6	-15.939711
1.556725E-6	-16.599527
1.55677E-6	-19.28118
1.556815E-6	-25.431787
1.55686E-6	-35.353614
1.556905E-6	-43.279946
1.55695E-6	-46.615435
1.556995E-6	-47.46662
1.55704E-6	-47.629592
1.557085E-6	-47.672579
1.55713E-6	-47.108572
1.557175E-6	-44.631891
1.55722E-6	-42.004527
1.557265E-6	-40.701215
1.55731E-6	-40.329671
1.557355E-6	-40.267798
1.5574E-6	-40.283068
1.557445E-6	-40.282141
1.55749E-6	-40.290955
1.557535E-6	-40.455163
1.55758E-6	-41.336536
1.557625E-6	-43.5164
1.55767E-6	-46.183435
1.557715E-6	-47.500682
1.55776E-6	-47.731424
1.557805E-6	-47.700623
1.55785E-6	-47.544873
1.557895E-6	-46.663512
1.55794E-6	-42.04398
1.557985E-6	-27.972393
1.55803E-6	-20.289098
1.558075E-6	-17.066374
1.55812E-6	-16.004993
1.558165E-6	-15.808707
1.55821E-6	-15.76918
1.558255E-6	-15.774102
1.5583E-6	-15.872036
1.558345E-6	-16.643415
1.55839E-6	-19.542859
1.558435E-6	-26.022337
1.55848E-6	-35.977386
1.558525E-6	-43.584267
1.55857E-6	-46.710091
1.558615E-6	-47.544873
1.55866E-6	-47.71343
1.558705E-6	-47.762445
1.55875E-6	-47.176045
1.558795E-6	-44.710833
1.55884E-6	-42.165967
1.558885E-6	-40.88576
1.55893E-6	-40.545807
1.558975E-6	-40.507076
1.55902E-6	-40.516849
1.559065E-6	-40.5061
1.55911E-6	-40.496351
1.559155E-6	-40.669178
1.5592E-6	-41.581402
1.559245E-6	-43.698774
1.55929E-6	-46.343249
1.559335E-6	-47.632109
1.55938E-6	-47.851562
1.559425E-6	-47.848914
1.55947E-6	-47.675121
1.559515E-6	-46.746896
1.55956E-6	-41.970211
1.559605E-6	-27.380238
1.55965E-6	-20.050233
1.559695E-6	-17.002748
1.55974E-6	-16.03452
1.559785E-6	-15.902359
1.55983E-6	-15.932895
1.559875E-6	-15.979106
1.55992E-6	-16.062494
1.559965E-6	-16.842395
1.56001E-6	-19.689957
1.560055E-6	-26.022337
1.5601E-6	-35.922693
1.560145E-6	-43.835245
1.56019E-6	-46.880343
1.560235E-6	-47.775437
1.56028E-6	-47.9588
1.560325E-6	-48.013429
1.56037E-6	-47.517814
1.560415E-6	-45.210009
1.56046E-6	-42.701875
1.560505E-6	-41.375704
1.56055E-6	-41.033085
1.560595E-6	-40.988687
1.56064E-6	-41.006173
1.560685E-6	-41.016588
1.56073E-6	-41.034738
1.560775E-6	-41.210189
1.56082E-6	-42.059304
1.560865E-6	-44.066032
1.56091E-6	-46.651443
1.560955E-6	-47.918275
1.561E-6	-48.147412
1.561045E-6	-48.141746
1.56109E-6	-48.002448
1.561135E-6	-47.121983
1.56118E-6	-42.838297
1.561225E-6	-28.582368
1.56127E-6	-20.328266
1.561315E-6	-16.974526
1.56136E-6	-15.934598
1.561405E-6	-15.780672
1.56145E-6	-15.816987
1.561495E-6	-15.875395
1.56154E-6	-15.972229
1.561585E-6	-16.651443
1.56163E-6	-19.277501
1.561675E-6	-25.247648
1.56172E-6	-35.07519
1.561765E-6	-43.425617
1.56181E-6	-46.987529
1.561855E-6	-48.068754
1.5619E-6	-48.294449
1.561945E-6	-48.368386
1.56199E-6	-48.06319
1.562035E-6	-46.192462
1.56208E-6	-43.642148
1.562125E-6	-42.22066
1.56217E-6	-41.775704
1.562215E-6	-41.705676
1.56226E-6	-41.703746
1.562305E-6	-41.735365
1.56235E-6	-41.760044
1.562395E-6	-41.877553
1.56244E-6	-42.510371
1.562485E-6	-44.212462
1.56253E-6	-46.689778
1.562575E-6	-48.184422
1.56262E-6	-48.53872
1.562665E-6	-48.554258
1.56271E-6	-48.449678
1.562755E-6	-47.806775
1.5628E-6	-44.779472
1.562845E-6	-31.781591
1.56289E-6	-21.546539
1.562935E-6	-17.347104
1.56298E-6	-15.895602
1.563025E-6	-15.62091
1.56307E-6	-15.655908
1.563115E-6	-15.746288
1.56316E-6	-15.840256
1.563205E-6	-16.302277
1.56325E-6	-18.428456
1.563295E-6	-23.313346
1.56334E-6	-32.703493
1.563385E-6	-41.848873
1.56343E-6	-46.734593
1.563475E-6	-48.359447
1.56352E-6	-48.687022
1.563565E-6	-48.784402
1.56361E-6	-48.671002
1.563655E-6	-47.366007
1.5637E-6	-44.958011
1.563745E-6	-43.266104
1.56379E-6	-42.654402
1.563835E-6	-42.551596
1.56388E-6	-42.558635
1.563925E-6	-42.595584
1.56397E-6	-42.63046
1.564015E-6	-42.702684
1.56406E-6	-43.148855
1.564105E-6	-44.585456
1.56415E-6	-46.914356
1.564195E-6	-48.576105
1.56424E-6	-49.010104
1.564285E-6	-49.04482
1.56433E-6	-48.965384
1.564375E-6	-48.517059
1.56442E-6	-46.413039
1.564465E-6	-36.176227
1.56451E-6	-23.611116
1.564555E-6	-18.178708
1.5646E-6	-16.071273
1.564645E-6	-15.697636
1.56469E-6	-15.723516
1.564735E-6	-15.825283
1.56478E-6	-15.939711
1.564825E-6	-16.223296
1.56487E-6	-17.736579
1.564915E-6	-21.673634
1.56496E-6	-29.726504
1.565005E-6	-40.001303
1.56505E-6	-46.241536
1.565095E-6	-48.579235
1.56514E-6	-49.154237
1.565185E-6	-49.295927
1.56523E-6	-49.321855
1.565275E-6	-48.569852
1.56532E-6	-46.443569
1.565365E-6	-44.597957
1.56541E-6	-43.796557
1.565455E-6	-43.636124
1.5655E-6	-43.646168
1.565545E-6	-43.680492
1.56559E-6	-43.715089
1.565635E-6	-43.734543
1.56568E-6	-43.997897
1.565725E-6	-45.084982
1.56577E-6	-47.079656
1.565815E-6	-48.938091
1.56586E-6	-49.531148
1.565905E-6	-49.621752
1.56595E-6	-49.582127
1.565995E-6	-49.321855
1.56604E-6	-47.90217
1.566085E-6	-41.744441
1.56613E-6	-26.876111
1.566175E-6	-19.629721
1.56622E-6	-16.53647
1.566265E-6	-15.702477
1.56631E-6	-15.675117
1.566355E-6	-15.777385
1.5664E-6	-15.88212
1.566445E-6	-16.078309
1.56649E-6	-17.126462
1.566535E-6	-20.280287
1.56658E-6	-27.500682
1.566625E-6	-37.56962
1.56667E-6	-45.273898
1.566715E-6	-48.620133
1.56676E-6	-49.621752
1.566805E-6	-49.858997
1.56685E-6	-49.948195
1.566895E-6	-49.673812
1.56694E-6	-48.178708
1.566985E-6	-46.23423
1.56703E-6	-45.155578
1.567075E-6	-44.867824
1.56712E-6	-44.855851
1.567165E-6	-44.89321
1.56721E-6	-44.92279
1.567255E-6	-44.953932
1.5673E-6	-45.107448
1.567345E-6	-45.793842
1.56739E-6	-47.384992
1.567435E-6	-49.288547
1.56748E-6	-50.146184
1.567525E-6	-50.338583
1.56757E-6	-50.380571
1.567615E-6	-50.40148
1.56766E-6	-50.443603
1.567705E-6	-50.287242
1.56775E-6	-49.168559
1.567795E-6	-47.344747
1.56784E-6	-46.192462
1.567885E-6	-45.875395
1.56793E-6	-45.887171
1.567975E-6	-45.96022
1.56802E-6	-46.03452
1.568065E-6	-46.136794
1.56811E-6	-46.276404
1.568155E-6	-46.813107
1.5682E-6	-48.158766
1.568245E-6	-49.880069
1.56829E-6	-50.822845
1.568335E-6	-51.079054
1.56838E-6	-51.166225
1.568425E-6	-51.225711
1.56847E-6	-51.308857
1.568515E-6	-51.308857
1.56856E-6	-50.767042
1.568605E-6	-49.461536
1.56865E-6	-48.419392
1.568695E-6	-48.110715
1.56874E-6	-48.173001
1.568785E-6	-48.317973
1.56883E-6	-48.474059
1.568875E-6	-48.639139
1.56892E-6	-48.837244
1.568965E-6	-49.248181
1.56901E-6	-50.173218
1.569055E-6	-51.394224
1.5691E-6	-52.128939
1.569145E-6	-52.36123
1.56919E-6	-52.453459
1.569235E-6	-52.54769
1.56928E-6	-52.608234
1.569325E-6	-52.670436
1.56937E-6	-52.530546
1.569415E-6	-51.981848
1.56946E-6	-51.354889
1.569505E-6	-51.124952
1.56955E-6	-51.174755
1.569595E-6	-51.289527
1.56964E-6	-51.417035
1.569685E-6	-51.538485
1.56973E-6	-51.684501
1.569775E-6	-51.894987
1.56982E-6	-52.34108
1.569865E-6	-52.876029
1.56991E-6	-53.317073
1.569955E-6	-53.469805
1.57E-6	-53.5164
