Wavelength (nm)	Power (dBm)
1.525E-6	-77.986029
1.525045E-6	-77.639669
1.52509E-6	-78.674202
1.525135E-6	-79.965395
1.52518E-6	-82.837462
1.525225E-6	-86.304131
1.52527E-6	-87.242281
1.525315E-6	-95.044557
1.52536E-6	-88.664611
1.525405E-6	-88.613816
1.52545E-6	-87.687854
1.525495E-6	-83.70081
1.52554E-6	-79.393022
1.525585E-6	-77.488487
1.52563E-6	-76.931463
1.525675E-6	-76.948637
1.52572E-6	-77.048729
1.525765E-6	-76.311555
1.52581E-6	-76.491707
1.525855E-6	-76.699923
1.5259E-6	-78.693447
1.525945E-6	-80.668165
1.52599E-6	-85.36555
1.526035E-6	-86.411138
1.52608E-6	-88.002448
1.526125E-6	-93.09007
1.52617E-6	-87.999707
1.526215E-6	-86.133227
1.52626E-6	-82.303273
1.526305E-6	-78.566729
1.52635E-6	-76.403542
1.526395E-6	-75.534628
1.52644E-6	-75.329842
1.526485E-6	-75.434821
1.52653E-6	-75.016894
1.526575E-6	-75.048721
1.52662E-6	-75.185574
1.526665E-6	-76.313413
1.52671E-6	-79.366666
1.526755E-6	-83.993538
1.5268E-6	-86.483969
1.526845E-6	-87.401673
1.52689E-6	-91.625378
1.526935E-6	-87.048729
1.52698E-6	-86.118988
1.527025E-6	-83.368647
1.52707E-6	-78.341624
1.527115E-6	-75.281218
1.52716E-6	-74.388986
1.527205E-6	-74.160082
1.52725E-6	-73.943718
1.527295E-6	-73.752024
1.52734E-6	-73.653212
1.527385E-6	-73.971807
1.52743E-6	-74.734023
1.527475E-6	-77.406451
1.52752E-6	-80.853396
1.527565E-6	-86.23423
1.52761E-6	-87.690404
1.527655E-6	-85.941416
1.5277E-6	-88.837244
1.527745E-6	-88.178708
1.52779E-6	-85.307673
1.527835E-6	-79.04482
1.52788E-6	-75.058454
1.527925E-6	-73.446694
1.52797E-6	-73.130957
1.528015E-6	-73.006827
1.52806E-6	-73.001623
1.528105E-6	-72.844144
1.52815E-6	-72.747419
1.528195E-6	-73.515424
1.52824E-6	-75.394028
1.528285E-6	-79.35542
1.52833E-6	-83.269791
1.528375E-6	-88.474059
1.52842E-6	-87.330631
1.528465E-6	-87.039933
1.52851E-6	-85.943122
1.528555E-6	-84.971634
1.5286E-6	-80.848113
1.528645E-6	-75.072396
1.52869E-6	-72.727842
1.528735E-6	-72.344805
1.52878E-6	-72.033563
1.528825E-6	-72.205478
1.52887E-6	-72.091521
1.528915E-6	-71.969528
1.52896E-6	-72.259212
1.529005E-6	-73.580304
1.52905E-6	-77.749493
1.529095E-6	-81.932097
1.52914E-6	-85.011383
1.529185E-6	-88.860566
1.52923E-6	-87.053134
1.529275E-6	-85.554868
1.52932E-6	-87.589518
1.529365E-6	-81.389438
1.52941E-6	-75.73001
1.529455E-6	-72.748237
1.5295E-6	-71.890957
1.529545E-6	-71.509493
1.52959E-6	-71.491088
1.529635E-6	-71.376897
1.52968E-6	-71.276689
1.529725E-6	-71.489864
1.52977E-6	-72.546129
1.529815E-6	-75.16698
1.52986E-6	-79.248181
1.529905E-6	-84.489161
1.52995E-6	-94.296906
1.529995E-6	-86.792308
1.53004E-6	-80.956091
1.530085E-6	-85.707323
1.53013E-6	-84.390179
1.530175E-6	-76.293019
1.53022E-6	-72.966226
1.530265E-6	-71.534155
1.53031E-6	-71.179311
1.530355E-6	-71.131146
1.5304E-6	-71.159981
1.530445E-6	-71.141301
1.53049E-6	-71.106423
1.530535E-6	-71.650709
1.53058E-6	-73.813245
1.530625E-6	-77.888795
1.53067E-6	-81.409819
1.530715E-6	-86.93575
1.53076E-6	-87.176045
1.530805E-6	-88.374356
1.53085E-6	-87.253804
1.530895E-6	-88.294449
1.53094E-6	-78.955129
1.530985E-6	-73.739678
1.53103E-6	-71.575156
1.531075E-6	-70.908721
1.53112E-6	-70.878311
1.531165E-6	-70.782095
1.53121E-6	-70.89429
1.531255E-6	-70.879906
1.5313E-6	-71.084625
1.531345E-6	-72.579036
1.53139E-6	-75.845258
1.531435E-6	-81.023179
1.53148E-6	-84.676279
1.531525E-6	-85.224447
1.53157E-6	-88.06319
1.531615E-6	-89.277501
1.53166E-6	-86.140364
1.531705E-6	-81.487417
1.53175E-6	-74.958011
1.531795E-6	-72.194667
1.53184E-6	-71.133965
1.531885E-6	-71.04688
1.53193E-6	-70.880438
1.531975E-6	-70.62432
1.53202E-6	-70.867161
1.532065E-6	-70.991415
1.53211E-6	-71.77505
1.532155E-6	-74.635678
1.5322E-6	-79.104481
1.532245E-6	-83.460161
1.53229E-6	-87.205612
1.532335E-6	-86.378947
1.53238E-6	-88.021683
1.532425E-6	-87.219327
1.53247E-6	-84.24235
1.532515E-6	-76.414941
1.53256E-6	-73.101586
1.532605E-6	-71.421852
1.53265E-6	-71.076827
1.532695E-6	-70.930188
1.53274E-6	-71.054624
1.532785E-6	-70.976707
1.53283E-6	-71.013845
1.532875E-6	-71.628537
1.53292E-6	-73.500813
1.532965E-6	-77.966951
1.53301E-6	-81.375108
1.533055E-6	-83.56646
1.5331E-6	-87.522722
1.533145E-6	-88.425432
1.53319E-6	-88.576105
1.533235E-6	-85.294425
1.53328E-6	-80.53646
1.533325E-6	-74.623068
1.53337E-6	-72.424521
1.533415E-6	-71.433315
1.53346E-6	-71.528594
1.533505E-6	-71.481304
1.53355E-6	-71.802587
1.533595E-6	-71.704389
1.53364E-6	-72.041895
1.533685E-6	-72.909846
1.53373E-6	-75.905741
1.533775E-6	-79.111554
1.53382E-6	-85.059846
1.533865E-6	-87.942545
1.53391E-6	-86.409238
1.533955E-6	-87.498241
1.534E-6	-85.977386
1.534045E-6	-82.747419
1.53409E-6	-76.942188
1.534135E-6	-73.268869
1.53418E-6	-72.388242
1.534225E-6	-72.300322
1.53427E-6	-72.401811
1.534315E-6	-72.346295
1.53436E-6	-72.500319
1.534405E-6	-72.581396
1.53445E-6	-72.96107
1.534495E-6	-74.769042
1.53454E-6	-78.996295
1.534585E-6	-82.423004
1.53463E-6	-86.090649
1.534675E-6	-87.886124
1.53472E-6	-86.806857
1.534765E-6	-93.606131
1.53481E-6	-87.194216
1.534855E-6	-80.875122
1.5349E-6	-75.88212
1.534945E-6	-73.754085
1.53499E-6	-73.140792
1.535035E-6	-73.085648
1.53508E-6	-73.21846
1.535125E-6	-73.202088
1.53517E-6	-73.163227
1.535215E-6	-73.672391
1.53526E-6	-74.748256
1.535305E-6	-77.599502
1.53535E-6	-81.062937
1.535395E-6	-84.585456
1.53544E-6	-87.020208
1.535485E-6	-85.456125
1.53553E-6	-84.529641
1.535575E-6	-78.706324
1.53562E-6	-64.076012
1.535665E-6	-51.140737
1.53571E-6	-45.230235
1.535755E-6	-43.383766
1.5358E-6	-43.031196
1.535845E-6	-43.09361
1.53589E-6	-43.22393
1.535935E-6	-43.336693
1.53598E-6	-43.997897
1.536025E-6	-46.552149
1.53607E-6	-51.951113
1.536115E-6	-60.494404
1.53616E-6	-69.775716
1.536205E-6	-77.589518
1.53625E-6	-81.77505
1.536295E-6	-83.555614
1.53634E-6	-86.734593
1.536385E-6	-85.214335
1.53643E-6	-80.938805
1.536475E-6	-76.623411
1.53652E-6	-75.061239
1.536565E-6	-74.334447
1.53661E-6	-74.591702
1.536655E-6	-74.481842
1.5367E-6	-74.300412
1.536745E-6	-74.438182
1.53679E-6	-74.67373
1.536835E-6	-76.038007
1.53688E-6	-79.222688
1.536925E-6	-82.167398
1.53697E-6	-85.540846
1.537015E-6	-88.71924
1.53706E-6	-86.857113
1.537105E-6	-83.233064
1.53715E-6	-78.535619
1.537195E-6	-64.661009
1.53724E-6	-51.291866
1.537285E-6	-45.431787
1.53733E-6	-43.577334
1.537375E-6	-43.209357
1.53742E-6	-43.194832
1.537465E-6	-43.238553
1.53751E-6	-43.277174
1.537555E-6	-43.867926
1.5376E-6	-46.343249
1.537645E-6	-51.771784
1.53769E-6	-60.465303
1.537735E-6	-69.775716
1.53778E-6	-77.775437
1.537825E-6	-81.551502
1.53787E-6	-84.814861
1.537915E-6	-84.579219
1.53796E-6	-86.261689
1.538005E-6	-86.289321
1.53805E-6	-78.193008
1.538095E-6	-76.29672
1.53814E-6	-75.025175
1.538185E-6	-74.723701
1.53823E-6	-75.01276
1.538275E-6	-74.67373
1.53832E-6	-74.740487
1.538365E-6	-75.139948
1.53841E-6	-76.099485
1.538455E-6	-79.535048
1.5385E-6	-81.065712
1.538545E-6	-86.154674
1.53859E-6	-85.865326
1.538635E-6	-87.754669
1.53868E-6	-85.767541
1.538725E-6	-79.453869
1.53877E-6	-66.124322
1.538815E-6	-52.344805
1.53886E-6	-46.445485
1.538905E-6	-43.828948
1.53895E-6	-43.407495
1.538995E-6	-43.324537
1.53904E-6	-43.289198
1.539085E-6	-43.292904
1.53913E-6	-43.70081
1.539175E-6	-45.999804
1.53922E-6	-50.953385
1.539265E-6	-61.682582
1.53931E-6	-69.775716
1.539355E-6	-77.066374
1.5394E-6	-81.18216
1.539445E-6	-84.554359
1.53949E-6	-89.453869
1.539535E-6	-85.343198
1.53958E-6	-82.750691
1.539625E-6	-78.054857
1.53967E-6	-75.253467
1.539715E-6	-75.155578
1.53976E-6	-74.8096
1.539805E-6	-74.544455
1.53985E-6	-74.4855
1.539895E-6	-74.652126
1.53994E-6	-74.863829
1.539985E-6	-76.126102
1.54003E-6	-78.616973
1.540075E-6	-81.115397
1.54012E-6	-87.007107
1.540165E-6	-88.425432
1.54021E-6	-88.377344
1.540255E-6	-84.492826
1.5403E-6	-79.746941
1.540345E-6	-69.689957
1.54039E-6	-53.251389
1.540435E-6	-46.861328
1.54048E-6	-43.938337
1.540525E-6	-43.336693
1.54057E-6	-43.183066
1.540615E-6	-43.098039
1.54066E-6	-43.09007
1.540705E-6	-43.443814
1.54075E-6	-45.416644
1.540795E-6	-49.97402
1.54084E-6	-59.838026
1.540885E-6	-68.598063
1.54093E-6	-75.651119
1.540975E-6	-79.888526
1.54102E-6	-84.273607
1.541065E-6	-88.498578
1.54111E-6	-86.998395
1.541155E-6	-83.008563
1.5412E-6	-77.256112
1.541245E-6	-75.268051
1.54129E-6	-74.408118
1.541335E-6	-74.270123
1.54138E-6	-74.169146
1.541425E-6	-74.116162
1.54147E-6	-74.12289
1.541515E-6	-74.252744
1.54156E-6	-75.066814
1.541605E-6	-77.380238
1.54165E-6	-80.089512
1.541695E-6	-84.137504
1.54174E-6	-86.552149
1.541785E-6	-85.985995
1.54183E-6	-86.074789
1.541875E-6	-82.491061
1.54192E-6	-72.461872
1.541965E-6	-55.172693
1.54201E-6	-47.554755
1.542055E-6	-44.090468
1.5421E-6	-43.281794
1.542145E-6	-43.118472
1.54219E-6	-43.056581
1.542235E-6	-43.0103
1.54228E-6	-43.16953
1.542325E-6	-44.586704
1.54237E-6	-48.544928
1.542415E-6	-56.554113
1.54246E-6	-65.984272
1.542505E-6	-73.390397
1.54255E-6	-79.763361
1.542595E-6	-82.442776
1.54264E-6	-85.313573
1.542685E-6	-88.016179
1.54273E-6	-83.634118
1.542775E-6	-78.661419
1.54282E-6	-74.918745
1.542865E-6	-73.87534
1.54291E-6	-73.520305
1.542955E-6	-73.657243
1.543E-6	-73.727366
1.543045E-6	-73.746875
1.54309E-6	-73.823707
1.543135E-6	-74.170281
1.54318E-6	-76.118988
1.543225E-6	-78.722475
1.54327E-6	-83.02422
1.543315E-6	-84.847887
1.54336E-6	-86.659486
1.543405E-6	-85.282683
1.54345E-6	-82.804201
1.543495E-6	-75.141367
1.54354E-6	-59.637705
1.543585E-6	-49.336741
1.54363E-6	-44.74178
1.543675E-6	-43.417023
1.54372E-6	-43.182162
1.543765E-6	-43.101586
1.54381E-6	-43.099812
1.543855E-6	-43.158731
1.5439E-6	-44.118404
1.543945E-6	-47.207895
1.54399E-6	-53.791355
1.544035E-6	-62.765443
1.54408E-6	-71.334764
1.544125E-6	-78.598063
1.54417E-6	-81.788797
1.544215E-6	-83.484313
1.54426E-6	-86.93575
1.544305E-6	-84.521023
1.54435E-6	-79.734667
1.544395E-6	-75.831931
1.54444E-6	-73.817427
1.544485E-6	-73.212086
1.54453E-6	-73.364875
1.544575E-6	-73.281794
1.54462E-6	-73.193926
1.544665E-6	-73.2413
1.54471E-6	-73.457272
1.544755E-6	-74.855851
1.5448E-6	-77.700623
1.544845E-6	-81.624747
1.54489E-6	-85.079384
1.544935E-6	-85.89729
1.54498E-6	-84.833324
1.545025E-6	-84.334447
1.54507E-6	-78.777841
1.545115E-6	-64.834646
1.54516E-6	-51.547779
1.545205E-6	-46.169031
1.54525E-6	-43.657243
1.545295E-6	-43.212086
1.54534E-6	-43.201181
1.545385E-6	-43.157832
1.54543E-6	-43.151546
1.545475E-6	-43.579314
1.54552E-6	-45.704092
1.545565E-6	-50.537443
1.54561E-6	-60.501223
1.545655E-6	-69.104481
1.5457E-6	-76.392173
1.545745E-6	-80.782095
1.54579E-6	-83.116692
1.545835E-6	-85.395532
1.54588E-6	-87.394516
1.545925E-6	-81.712113
1.54597E-6	-76.838199
1.546015E-6	-74.280584
1.54606E-6	-73.445734
1.546105E-6	-72.947351
1.54615E-6	-73.139897
1.546195E-6	-73.118472
1.54624E-6	-73.101586
1.546285E-6	-73.226668
1.54633E-6	-73.931889
1.546375E-6	-76.206945
1.54642E-6	-80.001738
1.546465E-6	-84.494048
1.54651E-6	-84.541982
1.546555E-6	-84.851867
1.5466E-6	-84.17823
1.546645E-6	-82.340336
1.54669E-6	-73.007695
1.546735E-6	-56.304131
1.54678E-6	-48.178708
1.546825E-6	-44.362817
1.54687E-6	-43.429441
1.546915E-6	-43.274404
1.54696E-6	-43.234893
1.547005E-6	-43.217548
1.54705E-6	-43.371478
1.547095E-6	-44.634416
1.54714E-6	-48.341624
1.547185E-6	-55.892228
1.54723E-6	-64.940365
1.547275E-6	-72.919192
1.54732E-6	-79.179331
1.547365E-6	-82.753146
1.54741E-6	-85.483671
1.547455E-6	-85.667103
1.5475E-6	-84.735315
1.547545E-6	-78.800846
1.54759E-6	-74.832003
1.547635E-6	-73.483344
1.54768E-6	-73.15963
1.547725E-6	-73.052194
1.54777E-6	-73.795516
1.547815E-6	-72.983457
1.54786E-6	-73.080349
1.547905E-6	-73.646168
1.54795E-6	-75.207127
1.547995E-6	-78.416375
1.54804E-6	-82.010043
1.548085E-6	-85.991168
1.54813E-6	-87.788467
1.548175E-6	-86.097716
1.54822E-6	-84.151037
1.548265E-6	-78.422411
1.54831E-6	-62.952491
1.548355E-6	-50.708366
1.5484E-6	-45.284149
1.548445E-6	-43.606131
1.54849E-6	-43.242217
1.548535E-6	-43.156934
1.54858E-6	-43.147959
1.548625E-6	-43.199366
1.54867E-6	-43.689623
1.548715E-6	-45.972229
1.54876E-6	-51.05961
1.548805E-6	-61.716624
1.54885E-6	-68.877302
1.548895E-6	-77.101882
1.54894E-6	-80.883098
1.548985E-6	-85.37153
1.54903E-6	-86.712128
1.549075E-6	-87.685304
1.54912E-6	-81.61025
1.549165E-6	-76.585655
1.54921E-6	-74.164612
1.549255E-6	-73.193926
1.5493E-6	-73.130064
1.549345E-6	-72.939653
1.54939E-6	-73.012037
1.549435E-6	-73.106911
1.54948E-6	-73.14527
1.549525E-6	-73.995717
1.54957E-6	-76.395959
1.549615E-6	-79.284862
1.54966E-6	-83.715089
1.549705E-6	-86.746896
1.54975E-6	-85.823623
1.549795E-6	-86.136794
1.54984E-6	-81.563935
1.549885E-6	-73.639135
1.54993E-6	-56.689778
1.549975E-6	-48.201611
1.55002E-6	-44.294571
1.550065E-6	-43.284569
1.55011E-6	-43.1078
1.550155E-6	-43.089185
1.5502E-6	-43.101586
1.550245E-6	-43.165027
1.55029E-6	-44.031831
1.550335E-6	-47.196493
1.55038E-6	-53.802807
1.550425E-6	-63.012037
1.55047E-6	-71.437546
1.550515E-6	-79.284862
1.55056E-6	-83.105136
1.550605E-6	-83.2413
1.55065E-6	-85.62091
1.550695E-6	-84.92684
1.55074E-6	-79.93962
1.550785E-6	-75.368539
1.55083E-6	-73.714067
1.550875E-6	-73.295686
1.55092E-6	-73.088301
1.550965E-6	-72.942218
1.55101E-6	-73.114912
1.551055E-6	-72.985184
1.5511E-6	-73.183066
1.551145E-6	-74.468455
1.55119E-6	-77.637147
1.551235E-6	-80.693056
1.55128E-6	-86.127882
1.551325E-6	-86.245193
1.55137E-6	-87.791078
1.551415E-6	-83.534002
1.55146E-6	-79.783973
1.551505E-6	-68.716007
1.55155E-6	-52.896287
1.551595E-6	-46.697892
1.55164E-6	-43.832095
1.551685E-6	-43.266104
1.55173E-6	-43.202088
1.551775E-6	-43.171332
1.55182E-6	-43.150649
1.551865E-6	-43.415116
1.55191E-6	-45.073793
1.551955E-6	-49.100949
1.552E-6	-58.057633
1.552045E-6	-66.744843
1.55209E-6	-74.348608
1.552135E-6	-79.344203
1.55218E-6	-82.987775
1.552225E-6	-83.521282
1.55227E-6	-86.836102
1.552315E-6	-83.156035
1.55236E-6	-77.311881
1.552405E-6	-74.323856
1.55245E-6	-73.160529
1.552495E-6	-73.005959
1.55254E-6	-72.863415
1.552585E-6	-72.824959
1.55263E-6	-72.927706
1.552675E-6	-72.98432
1.55272E-6	-73.400838
1.552765E-6	-75.22734
1.55281E-6	-78.877302
1.552855E-6	-82.134615
1.5529E-6	-86.017127
1.552945E-6	-86.380834
1.55299E-6	-86.550186
1.553035E-6	-83.855246
1.55308E-6	-76.358244
1.553125E-6	-62.215593
1.55317E-6	-50.329203
1.553215E-6	-45.096201
1.55326E-6	-43.522259
1.553305E-6	-43.211176
1.55335E-6	-43.138108
1.553395E-6	-43.09007
1.55344E-6	-43.090954
1.553485E-6	-43.593198
1.55353E-6	-45.865326
1.553575E-6	-50.789381
1.55362E-6	-60.94744
1.553665E-6	-68.924509
1.55371E-6	-76.293019
1.553755E-6	-79.901244
1.5538E-6	-83.836295
1.553845E-6	-86.565914
1.55389E-6	-84.034029
1.553935E-6	-81.086298
1.55398E-6	-76.104795
1.554025E-6	-73.87534
1.55407E-6	-72.955063
1.554115E-6	-72.810004
1.55416E-6	-72.732728
1.554205E-6	-72.882771
1.55425E-6	-72.687337
1.554295E-6	-72.963648
1.55434E-6	-73.293831
1.554385E-6	-75.652715
1.55443E-6	-78.658229
1.554475E-6	-82.243168
1.55452E-6	-85.705707
1.554565E-6	-85.67191
1.55461E-6	-86.92718
1.554655E-6	-84.366376
1.5547E-6	-74.647059
1.554745E-6	-59.072794
1.55479E-6	-48.910969
1.554835E-6	-44.616777
1.55488E-6	-43.478504
1.554925E-6	-43.256901
1.55497E-6	-43.212086
1.555015E-6	-43.173135
1.55506E-6	-43.194832
1.555105E-6	-43.862639
1.55515E-6	-46.462761
1.555195E-6	-52.481053
1.55524E-6	-60.993598
1.555285E-6	-70.18272
1.55533E-6	-77.93444
1.555375E-6	-81.742494
1.55542E-6	-83.506651
1.555465E-6	-88.253588
1.55551E-6	-86.127882
1.555555E-6	-81.12214
1.5556E-6	-75.542402
1.555645E-6	-73.402739
1.55569E-6	-72.753965
1.555735E-6	-72.625688
1.55578E-6	-72.582183
1.555825E-6	-72.438966
1.55587E-6	-72.678476
1.555915E-6	-72.712405
1.55596E-6	-73.48722
1.556005E-6	-75.52222
1.55605E-6	-79.200955
1.556095E-6	-83.244966
1.55614E-6	-86.524748
1.556185E-6	-86.011923
1.55623E-6	-84.649592
1.556275E-6	-81.509493
1.55632E-6	-73.362991
1.556365E-6	-56.205132
1.55641E-6	-48.002448
1.556455E-6	-44.193031
1.5565E-6	-43.284569
1.556545E-6	-43.098926
1.55659E-6	-43.078584
1.556635E-6	-43.068889
1.55668E-6	-43.129172
1.556725E-6	-43.962063
1.55677E-6	-46.88458
1.556815E-6	-53.332013
1.55686E-6	-61.947031
1.556905E-6	-70.91247
1.55695E-6	-78.01893
1.556995E-6	-82.108425
1.55704E-6	-85.951663
1.557085E-6	-84.55312
1.55713E-6	-86.507225
1.557175E-6	-80.334359
1.55722E-6	-75.272436
1.557265E-6	-73.33482
1.55731E-6	-72.689756
1.557355E-6	-72.544568
1.5574E-6	-72.530546
1.557445E-6	-72.744967
1.55749E-6	-72.604277
1.557535E-6	-72.552378
1.55758E-6	-73.861582
1.557625E-6	-76.223296
1.55767E-6	-80.095279
1.557715E-6	-85.032087
1.55776E-6	-87.515363
1.557805E-6	-84.399738
1.55785E-6	-86.693833
1.557895E-6	-81.270284
1.55794E-6	-72.370965
1.557985E-6	-55.547072
1.55803E-6	-47.726276
1.558075E-6	-44.110564
1.55812E-6	-43.185778
1.558165E-6	-43.036436
1.55821E-6	-43.043432
1.558255E-6	-43.049563
1.5583E-6	-43.146166
1.558345E-6	-44.048346
1.55839E-6	-47.162466
1.558435E-6	-53.742761
1.55848E-6	-62.676062
1.558525E-6	-71.270866
1.55857E-6	-77.983298
1.558615E-6	-82.892904
1.55866E-6	-86.010189
1.558705E-6	-85.612995
1.55875E-6	-84.500164
1.558795E-6	-80.064756
1.55884E-6	-75.338741
1.558885E-6	-73.718155
1.55893E-6	-72.951634
1.558975E-6	-72.898826
1.55902E-6	-72.785191
1.559065E-6	-72.762161
1.55911E-6	-72.736804
1.559155E-6	-72.977418
1.5592E-6	-73.993538
1.559245E-6	-76.697892
1.55929E-6	-79.423339
1.559335E-6	-84.109445
1.55938E-6	-86.617428
1.559425E-6	-85.22011
1.55947E-6	-84.796475
1.559515E-6	-81.332402
1.55956E-6	-73.215727
1.559605E-6	-56.337639
1.55965E-6	-48.250684
1.559695E-6	-44.347427
1.55974E-6	-43.408447
1.559785E-6	-43.291977
1.55983E-6	-43.314277
1.559875E-6	-43.357342
1.55992E-6	-43.462088
1.559965E-6	-44.380642
1.56001E-6	-47.564659
1.560055E-6	-54.366376
1.5601E-6	-63.207539
1.560145E-6	-71.651344
1.56019E-6	-78.847224
1.560235E-6	-82.366469
1.56028E-6	-120
1.560325E-6	-87.055338
1.56037E-6	-86.024076
1.560415E-6	-81.09579
1.56046E-6	-76.138579
1.560505E-6	-74.027437
1.56055E-6	-73.342314
1.560595E-6	-73.331078
1.56064E-6	-73.274404
1.560685E-6	-73.406544
1.56073E-6	-73.485281
1.560775E-6	-73.54676
1.56082E-6	-74.680104
1.560865E-6	-76.607474
1.56091E-6	-79.817157
1.560955E-6	-83.842603
1.561E-6	-87.532553
1.561045E-6	-88.124793
1.56109E-6	-86.453154
1.561135E-6	-86.025815
1.56118E-6	-85.977386
1.561225E-6	-81.701176
1.56127E-6	-76.480105
1.561315E-6	-74.354523
1.56136E-6	-74.036229
1.561405E-6	-73.737623
1.56145E-6	-73.506651
1.561495E-6	-73.656235
1.56154E-6	-73.778896
1.561585E-6	-74.016473
1.56163E-6	-74.736607
1.561675E-6	-77.342391
1.56172E-6	-80.317973
1.561765E-6	-86.208759
1.56181E-6	-85.691191
1.561855E-6	-89.273825
1.5619E-6	-86.420652
1.561945E-6	-86.706021
1.56199E-6	-88.651856
1.562035E-6	-82.856702
1.56208E-6	-77.493361
1.562125E-6	-74.981195
1.56217E-6	-74.253901
1.562215E-6	-74.137504
1.56226E-6	-74.080454
1.562305E-6	-74.252744
1.56235E-6	-74.149907
1.562395E-6	-74.028535
1.56244E-6	-74.898573
1.562485E-6	-77.488487
1.56253E-6	-80.577935
1.562575E-6	-84.529641
1.56262E-6	-87.582046
1.562665E-6	-88.513973
1.56271E-6	-89.010104
1.562755E-6	-85.370034
1.5628E-6	-87.155693
1.562845E-6	-83.631111
1.56289E-6	-78.529423
1.562935E-6	-75.734887
1.56298E-6	-74.960732
1.563025E-6	-74.530874
1.56307E-6	-74.828041
1.563115E-6	-74.672456
1.56316E-6	-74.705696
1.563205E-6	-74.645793
1.56325E-6	-75.49443
1.563295E-6	-77.340036
1.56334E-6	-79.821323
1.563385E-6	-84.362817
1.56343E-6	-85.687971
1.563475E-6	-87.599502
1.56352E-6	-89.645703
1.563565E-6	-86.955095
1.56361E-6	-85.675117
1.563655E-6	-84.139756
1.5637E-6	-79.566377
1.563745E-6	-76.443569
1.56379E-6	-75.176982
1.563835E-6	-75.043169
1.56388E-6	-75.752817
1.563925E-6	-75.364056
1.56397E-6	-74.907975
1.564015E-6	-75.412111
1.56406E-6	-75.90405
1.564105E-6	-77.644716
1.56415E-6	-79.909743
1.564195E-6	-83.247717
1.56424E-6	-87.269987
1.564285E-6	-90.586377
1.56433E-6	-87.862167
1.564375E-6	-90.346572
1.56442E-6	-88.178708
1.564465E-6	-85.019653
1.56451E-6	-80.350336
1.564555E-6	-77.539941
1.5646E-6	-75.915904
1.564645E-6	-75.795491
1.56469E-6	-75.617742
1.564735E-6	-75.828606
1.56478E-6	-75.663902
1.564825E-6	-75.946536
1.56487E-6	-75.941416
1.564915E-6	-77.81202
1.56496E-6	-80.424885
1.565005E-6	-83.732491
1.56505E-6	-84.32856
1.565095E-6	-86.443569
1.56514E-6	-91.496601
1.565185E-6	-88.551146
1.56523E-6	-87.293212
1.565275E-6	-84.820128
1.56532E-6	-82.535215
1.565365E-6	-77.964232
1.56541E-6	-76.880343
1.565455E-6	-76.593576
1.5655E-6	-76.520848
1.565545E-6	-75.807053
1.56559E-6	-76.701955
1.565635E-6	-76.53647
1.56568E-6	-77.024583
1.565725E-6	-78.329782
1.56577E-6	-80.403386
1.565815E-6	-83.759243
1.56586E-6	-85.853609
1.565905E-6	-87.652297
1.56595E-6	-87.473897
1.565995E-6	-88.588639
1.56604E-6	-87.097427
1.566085E-6	-90.742755
1.56613E-6	-83.242217
1.566175E-6	-79.775716
1.56622E-6	-77.891466
1.566265E-6	-77.552282
1.56631E-6	-77.033348
1.566355E-6	-77.004927
1.5664E-6	-76.565914
1.566445E-6	-77.283907
1.56649E-6	-77.975117
1.566535E-6	-78.748442
1.56658E-6	-79.838026
1.566625E-6	-82.870138
1.56667E-6	-87.035542
1.566715E-6	-93.182162
1.56676E-6	-120
1.566805E-6	-85.639965
1.56685E-6	-83.060094
1.566895E-6	-89.590023
1.56694E-6	-83.521282
1.566985E-6	-80.83862
1.56703E-6	-78.44057
1.567075E-6	-77.81202
1.56712E-6	-77.637147
1.567165E-6	-77.867479
1.56721E-6	-77.627077
1.567255E-6	-77.478754
1.5673E-6	-77.830428
1.567345E-6	-78.4649
1.56739E-6	-80.918905
1.567435E-6	-83.921163
1.56748E-6	-84.32268
1.567525E-6	-86.221476
1.56757E-6	-86.434006
1.567615E-6	-89.273825
1.56766E-6	-86.205132
1.567705E-6	-91.081839
1.56775E-6	-84.337983
1.567795E-6	-81.672995
1.56784E-6	-78.761484
1.567885E-6	-78.315025
1.56793E-6	-78.492436
1.567975E-6	-78.347557
1.56802E-6	-78.41336
1.568065E-6	-78.190144
1.56811E-6	-78.716007
1.568155E-6	-78.867253
1.5682E-6	-79.986991
1.568245E-6	-82.389747
1.56829E-6	-86.863437
1.568335E-6	-86.07303
1.56838E-6	-89.673812
1.568425E-6	-87.349462
1.56847E-6	-89.669786
1.568515E-6	-90.125572
1.56856E-6	-85.767541
1.568605E-6	-83.028579
1.56865E-6	-80.027447
1.568695E-6	-78.90759
1.56874E-6	-78.790972
1.568785E-6	-79.179331
1.56883E-6	-78.601209
1.568875E-6	-78.807441
1.56892E-6	-79.079815
1.568965E-6	-79.132843
1.56901E-6	-80.817599
1.569055E-6	-82.44049
1.5691E-6	-85.37153
1.569145E-6	-88.190144
1.56919E-6	-85.388017
1.569235E-6	-89.812995
1.56928E-6	-89.991323
1.569325E-6	-88.910969
1.56937E-6	-85.657505
1.569415E-6	-85.713793
1.56946E-6	-81.39183
1.569505E-6	-79.817157
1.56955E-6	-80.428239
1.569595E-6	-79.248181
1.56964E-6	-80.423927
1.569685E-6	-79.562449
1.56973E-6	-80.051552
1.569775E-6	-79.601894
1.56982E-6	-80.838093
1.569865E-6	-83.034689
1.56991E-6	-84.334447
1.569955E-6	-87.022395
1.57E-6	-85.73001
