Wavelength (nm)	Power (dBm)
1.525E-6	-63.409399
1.525045E-6	-63.410352
1.52509E-6	-64.052761
1.525135E-6	-66.083593
1.52518E-6	-69.871628
1.525225E-6	-73.254144
1.52527E-6	-74.528409
1.525315E-6	-74.992148
1.52536E-6	-74.822764
1.525405E-6	-74.808285
1.52545E-6	-73.227582
1.525495E-6	-67.597004
1.52554E-6	-64.222785
1.525585E-6	-62.677671
1.52563E-6	-62.219211
1.525675E-6	-62.04259
1.52572E-6	-61.874208
1.525765E-6	-61.723077
1.52581E-6	-61.587031
1.525855E-6	-62.000395
1.5259E-6	-63.755116
1.525945E-6	-67.408842
1.52599E-6	-71.541581
1.526035E-6	-74.275931
1.52608E-6	-74.869156
1.526125E-6	-74.858509
1.52617E-6	-74.887853
1.526215E-6	-73.448616
1.52626E-6	-67.577071
1.526305E-6	-63.477537
1.52635E-6	-61.507649
1.526395E-6	-60.860802
1.52644E-6	-60.66108
1.526485E-6	-60.578431
1.52653E-6	-60.488568
1.526575E-6	-60.415795
1.52662E-6	-60.628835
1.526665E-6	-61.940915
1.52671E-6	-65.061239
1.526755E-6	-69.558524
1.5268E-6	-73.48722
1.526845E-6	-74.604221
1.52689E-6	-74.797786
1.526935E-6	-74.940365
1.52698E-6	-73.757179
1.527025E-6	-68.554258
1.52707E-6	-63.085648
1.527115E-6	-60.565055
1.52716E-6	-59.689957
1.527205E-6	-59.419538
1.52725E-6	-59.34047
1.527295E-6	-59.28118
1.52734E-6	-59.233596
1.527385E-6	-59.333014
1.52743E-6	-60.275657
1.527475E-6	-62.932822
1.52752E-6	-67.762445
1.527565E-6	-72.148126
1.52761E-6	-74.284076
1.527655E-6	-74.745664
1.5277E-6	-74.524714
1.527745E-6	-74.134127
1.52779E-6	-69.779843
1.527835E-6	-63.324537
1.52788E-6	-60.081539
1.527925E-6	-58.830604
1.52797E-6	-58.474059
1.528015E-6	-58.395315
1.52806E-6	-58.341624
1.528105E-6	-58.306195
1.52815E-6	-58.326827
1.528195E-6	-58.9279
1.52824E-6	-60.971815
1.528285E-6	-65.236032
1.52833E-6	-70.224593
1.528375E-6	-73.34044
1.52842E-6	-74.808285
1.528465E-6	-72.964507
1.52851E-6	-69.689957
1.528555E-6	-61.023729
1.5286E-6	-44.307432
1.528645E-6	-37.187393
1.52869E-6	-34.267802
1.528735E-6	-33.26058
1.52878E-6	-33.008563
1.528825E-6	-32.904756
1.52887E-6	-32.811663
1.528915E-6	-32.89375
1.52896E-6	-34.273607
1.529005E-6	-38.288588
1.52905E-6	-46.414941
1.529095E-6	-58.158766
1.52914E-6	-64.644527
1.529185E-6	-69.625735
1.52923E-6	-71.748986
1.529275E-6	-70.462403
1.52932E-6	-64.61175
1.529365E-6	-49.767475
1.52941E-6	-38.787685
1.529455E-6	-35.05428
1.5295E-6	-33.42275
1.529545E-6	-32.97828
1.52959E-6	-32.866775
1.529635E-6	-32.783542
1.52968E-6	-32.811663
1.529725E-6	-33.602148
1.52977E-6	-36.546263
1.529815E-6	-42.831623
1.52986E-6	-54.730149
1.529905E-6	-62.092224
1.52995E-6	-68.458805
1.529995E-6	-71.37809
1.53004E-6	-71.369747
1.530085E-6	-66.972363
1.53013E-6	-54.708264
1.530175E-6	-40.882034
1.53022E-6	-35.939711
1.530265E-6	-33.696738
1.53031E-6	-33.10336
1.530355E-6	-32.928558
1.5304E-6	-32.839967
1.530445E-6	-32.801717
1.53049E-6	-33.106911
1.530535E-6	-35.107448
1.53058E-6	-39.523358
1.530625E-6	-49.41574
1.53067E-6	-60.433994
1.530715E-6	-66.569855
1.53076E-6	-70.385314
1.530805E-6	-71.576404
1.53085E-6	-68.958544
1.530895E-6	-60.639892
1.53094E-6	-43.873221
1.530985E-6	-36.987529
1.53103E-6	-34.153296
1.531075E-6	-33.208448
1.53112E-6	-32.998157
1.531165E-6	-32.926002
1.53121E-6	-32.877713
1.531255E-6	-33.046935
1.5313E-6	-34.316809
1.531345E-6	-38.074325
1.53139E-6	-45.611413
1.531435E-6	-57.629592
1.53148E-6	-64.248122
1.531525E-6	-69.788107
1.53157E-6	-71.590162
1.531615E-6	-70.59633
1.53166E-6	-64.614263
1.531705E-6	-49.846402
1.53175E-6	-38.774565
1.531795E-6	-34.803032
1.53184E-6	-33.225756
1.531885E-6	-32.920043
1.53193E-6	-32.867615
1.531975E-6	-32.82829
1.53202E-6	-32.864255
1.532065E-6	-33.532043
1.53211E-6	-36.013657
1.532155E-6	-41.389438
1.5322E-6	-52.165252
1.532245E-6	-62.509597
1.53229E-6	-67.554755
1.532335E-6	-71.048538
1.53238E-6	-71.292451
1.532425E-6	-67.191941
1.53247E-6	-56.110112
1.532515E-6	-41.137914
1.53256E-6	-35.810362
1.532605E-6	-33.537924
1.53265E-6	-32.947351
1.532695E-6	-32.844981
1.53274E-6	-32.865935
1.532785E-6	-32.923447
1.53283E-6	-33.284569
1.532875E-6	-35.022413
1.53292E-6	-39.484616
1.532965E-6	-48.236193
1.53301E-6	-59.653715
1.533055E-6	-65.662302
1.5331E-6	-70.091729
1.533145E-6	-71.795358
1.53319E-6	-69.982663
1.533235E-6	-63.186683
1.53328E-6	-47.939841
1.533325E-6	-37.888795
1.53337E-6	-34.35926
1.533415E-6	-33.073293
1.53346E-6	-32.877713
1.533505E-6	-32.905604
1.53355E-6	-32.964507
1.533595E-6	-33.114022
1.53364E-6	-34.059391
1.533685E-6	-37.13319
1.53373E-6	-43.569423
1.533775E-6	-55.406075
1.53382E-6	-62.773661
1.533865E-6	-68.741935
1.53391E-6	-71.481304
1.533955E-6	-71.260984
1.534E-6	-66.73869
1.534045E-6	-54.453897
1.53409E-6	-40.345631
1.534135E-6	-35.43634
1.53418E-6	-33.35452
1.534225E-6	-32.868456
1.53427E-6	-32.824127
1.534315E-6	-32.921744
1.53436E-6	-33.043432
1.534405E-6	-33.514448
1.53445E-6	-35.579908
1.534495E-6	-40.03007
1.53454E-6	-49.400581
1.534585E-6	-60.573472
1.53463E-6	-66.665527
1.534675E-6	-70.500248
1.53472E-6	-71.862189
1.534765E-6	-69.625735
1.53481E-6	-61.761347
1.534855E-6	-46.40544
1.5349E-6	-36.955095
1.534945E-6	-33.943718
1.53499E-6	-32.938799
1.535035E-6	-32.831623
1.53508E-6	-32.929411
1.535125E-6	-33.035562
1.53517E-6	-33.256901
1.535215E-6	-34.458744
1.53526E-6	-37.988761
1.535305E-6	-45.062632
1.53535E-6	-57.121983
1.535395E-6	-64.023048
1.53544E-6	-69.665762
1.535485E-6	-71.82633
1.53553E-6	-71.215357
1.535575E-6	-66.149302
1.53562E-6	-53.307761
1.535665E-6	-40.038387
1.53571E-6	-35.312097
1.535755E-6	-33.23215
1.5358E-6	-32.817475
1.535845E-6	-32.845817
1.53589E-6	-32.932822
1.535935E-6	-33.052194
1.53598E-6	-33.581295
1.536025E-6	-35.743028
1.53607E-6	-40.667152
1.536115E-6	-51.025379
1.53616E-6	-61.645631
1.536205E-6	-67.198771
1.53625E-6	-70.942041
1.536295E-6	-71.854195
1.53634E-6	-69.480761
1.536385E-6	-61.662156
1.53643E-6	-44.478187
1.536475E-6	-37.059749
1.53652E-6	-33.985919
1.536565E-6	-32.972249
1.53661E-6	-32.886146
1.536655E-6	-32.953348
1.5367E-6	-33.005959
1.536745E-6	-33.184874
1.53679E-6	-34.393761
1.536835E-6	-37.899492
1.53688E-6	-45.058454
1.536925E-6	-57.330631
1.53697E-6	-64.087127
1.537015E-6	-69.649707
1.53706E-6	-71.839577
1.537105E-6	-71.216506
1.53715E-6	-66.267201
1.537195E-6	-53.600158
1.53724E-6	-40.035321
1.537285E-6	-35.388017
1.53733E-6	-33.288272
1.537375E-6	-32.849163
1.53742E-6	-32.827457
1.537465E-6	-32.839967
1.53751E-6	-32.889524
1.537555E-6	-33.348883
1.5376E-6	-35.502132
1.537645E-6	-40.260413
1.53769E-6	-50.494404
1.537735E-6	-61.229167
1.53778E-6	-67.013652
1.537825E-6	-70.681355
1.53787E-6	-72.03495
1.537915E-6	-69.75104
1.53796E-6	-62.687337
1.538005E-6	-47.290884
1.53805E-6	-37.483618
1.538095E-6	-34.265482
1.53814E-6	-33.106023
1.538185E-6	-32.941363
1.53823E-6	-32.89798
1.538275E-6	-32.88699
1.53832E-6	-33.017254
1.538365E-6	-34.05718
1.53841E-6	-37.361273
1.538455E-6	-44.253901
1.5385E-6	-56.40544
1.538545E-6	-63.292904
1.53859E-6	-69.299621
1.538635E-6	-71.669805
1.53868E-6	-71.427278
1.538725E-6	-67.223908
1.53877E-6	-55.263671
1.538815E-6	-40.989778
1.53886E-6	-35.717032
1.538905E-6	-33.645163
1.53895E-6	-33.082115
1.538995E-6	-32.991233
1.53904E-6	-32.946495
1.539085E-6	-32.939653
1.53913E-6	-33.256901
1.539175E-6	-35.181276
1.53922E-6	-39.738755
1.539265E-6	-49.277501
1.53931E-6	-60.520274
1.539355E-6	-66.416844
1.5394E-6	-70.454681
1.539445E-6	-71.951793
1.53949E-6	-70.11664
1.539535E-6	-63.578324
1.53958E-6	-48.093882
1.539625E-6	-37.93444
1.53967E-6	-34.537042
1.539715E-6	-33.240385
1.53976E-6	-32.962788
1.539805E-6	-32.88699
1.53985E-6	-32.844144
1.539895E-6	-32.890369
1.53994E-6	-33.749964
1.539985E-6	-36.724367
1.54003E-6	-43.521282
1.540075E-6	-55.539291
1.54012E-6	-62.57432
1.540165E-6	-68.579235
1.54021E-6	-71.412223
1.540255E-6	-71.7276
1.5403E-6	-68.300318
1.540345E-6	-57.057543
1.54039E-6	-41.871535
1.540435E-6	-36.136794
1.54048E-6	-33.778896
1.540525E-6	-33.036436
1.54057E-6	-32.880241
1.540615E-6	-32.829123
1.54066E-6	-32.80503
1.540705E-6	-33.022477
1.54075E-6	-34.682657
1.540795E-6	-38.972234
1.54084E-6	-47.476325
1.540885E-6	-59.164974
1.54093E-6	-65.292956
1.540975E-6	-69.905491
1.54102E-6	-71.928033
1.541065E-6	-70.808696
1.54111E-6	-65.230235
1.541155E-6	-50.773264
1.5412E-6	-39.076303
1.541245E-6	-35.087784
1.54129E-6	-33.432312
1.541335E-6	-33.018995
1.54138E-6	-32.9073
1.541425E-6	-32.886146
1.54147E-6	-32.914092
1.541515E-6	-33.521282
1.54156E-6	-36.069515
1.541605E-6	-41.566426
1.54165E-6	-52.262867
1.541695E-6	-62.520447
1.54174E-6	-67.708303
1.541785E-6	-71.025379
1.54183E-6	-71.858856
1.541875E-6	-69.200955
1.54192E-6	-60.805558
1.541965E-6	-43.836295
1.54201E-6	-36.90157
1.542055E-6	-34.125135
1.5421E-6	-33.20663
1.542145E-6	-32.987775
1.54219E-6	-32.92515
1.542235E-6	-32.901367
1.54228E-6	-32.989504
1.542325E-6	-34.147649
1.54237E-6	-37.710866
1.542415E-6	-45.022413
1.54246E-6	-56.90157
1.542505E-6	-63.626103
1.54255E-6	-69.321855
1.542595E-6	-71.775704
1.54264E-6	-71.364392
1.542685E-6	-66.73869
1.54273E-6	-54.42132
1.542775E-6	-40.645431
1.54282E-6	-35.792194
1.542865E-6	-33.689623
1.54291E-6	-33.156035
1.542955E-6	-33.038184
1.543E-6	-33.023348
1.543045E-6	-32.971388
1.54309E-6	-33.267026
1.543135E-6	-35.059846
1.54318E-6	-39.689957
1.543225E-6	-48.917733
1.54327E-6	-60.008259
1.543315E-6	-65.951663
1.54336E-6	-70.20816
1.543405E-6	-71.905076
1.54345E-6	-70.241548
1.543495E-6	-63.736596
1.54354E-6	-48.59492
1.543585E-6	-38.291518
1.54363E-6	-34.625587
1.543675E-6	-33.212996
1.54372E-6	-32.943073
1.543765E-6	-32.901367
1.54381E-6	-32.887835
1.543855E-6	-32.906452
1.5439E-6	-33.583276
1.543945E-6	-36.258017
1.54399E-6	-41.810487
1.544035E-6	-52.593216
1.54408E-6	-62.612987
1.544125E-6	-67.977842
1.54417E-6	-71.159981
1.544215E-6	-71.870866
1.54426E-6	-68.771291
1.544305E-6	-59.961088
1.54435E-6	-43.342314
1.544395E-6	-36.591595
1.54444E-6	-34.025242
1.544485E-6	-33.193926
1.54453E-6	-33.030324
1.544575E-6	-33.006827
1.54462E-6	-32.956779
1.544665E-6	-33.06361
1.54471E-6	-34.205594
1.544755E-6	-37.762445
1.5448E-6	-45.068209
1.544845E-6	-57.007107
1.54489E-6	-63.989183
1.544935E-6	-69.419538
1.54498E-6	-71.683222
1.545025E-6	-71.040805
1.54507E-6	-66.38839
1.545115E-6	-53.379036
1.54516E-6	-40.169152
1.545205E-6	-35.575202
1.54525E-6	-33.52617
1.545295E-6	-33.064489
1.54534E-6	-32.955063
1.545385E-6	-32.924298
1.54543E-6	-32.930263
1.545475E-6	-33.267947
1.54552E-6	-35.141367
1.545565E-6	-39.453869
1.54561E-6	-48.658229
1.545655E-6	-60.117087
1.5457E-6	-66.092415
1.545745E-6	-70.172314
1.54579E-6	-71.898347
1.545835E-6	-70.311903
1.54588E-6	-64.379452
1.545925E-6	-49.637705
1.54597E-6	-38.45576
1.546015E-6	-34.704413
1.54606E-6	-33.284569
1.546105E-6	-33.014645
1.54615E-6	-32.947351
1.546195E-6	-32.928558
1.54624E-6	-32.962788
1.546285E-6	-33.505678
1.54633E-6	-35.898979
1.546375E-6	-41.30299
1.54642E-6	-51.670442
1.546465E-6	-62.273116
1.54651E-6	-67.599502
1.546555E-6	-70.868222
1.5466E-6	-71.808511
1.546645E-6	-69.266483
1.54669E-6	-60.90658
1.546735E-6	-44.235435
1.54678E-6	-37.053134
1.546825E-6	-34.211317
1.54687E-6	-33.274404
1.546915E-6	-33.090954
1.54696E-6	-33.021606
1.547005E-6	-33.027707
1.54705E-6	-33.156934
1.547095E-6	-34.100504
1.54714E-6	-37.246886
1.547185E-6	-43.834195
1.54723E-6	-55.654311
1.547275E-6	-62.683307
1.54732E-6	-68.900841
1.547365E-6	-71.402015
1.54741E-6	-71.51503
1.547455E-6	-67.449688
1.5475E-6	-56.548224
1.547545E-6	-41.669167
1.54759E-6	-35.868679
1.547635E-6	-33.633116
1.54768E-6	-33.005959
1.547725E-6	-32.875187
1.54777E-6	-32.848326
1.547815E-6	-32.844981
1.54786E-6	-33.015515
1.547905E-6	-34.385408
1.54795E-6	-38.27689
1.547995E-6	-46.315272
1.54804E-6	-57.996968
1.548085E-6	-64.285241
1.54813E-6	-69.694003
1.548175E-6	-71.720495
1.54822E-6	-71.049644
1.548265E-6	-65.705707
1.54831E-6	-52.227907
1.548355E-6	-39.833845
1.5484E-6	-35.415132
1.548445E-6	-33.486251
1.54849E-6	-33.02422
1.548535E-6	-32.944784
1.54858E-6	-32.942218
1.548625E-6	-32.966226
1.54867E-6	-33.297541
1.548715E-6	-35.214335
1.54876E-6	-39.685915
1.548805E-6	-49.104481
1.54885E-6	-60.388638
1.548895E-6	-66.214204
1.54894E-6	-70.326393
1.548985E-6	-71.927356
1.54903E-6	-70.360234
1.549075E-6	-64.004444
1.54912E-6	-49.629721
1.549165E-6	-38.489367
1.54921E-6	-34.748256
1.549255E-6	-33.18397
1.5493E-6	-32.897134
1.549345E-6	-32.849163
1.54939E-6	-32.845817
1.549435E-6	-32.872661
1.54948E-6	-33.456309
1.549525E-6	-35.812017
1.54957E-6	-40.962049
1.549615E-6	-51.357263
1.54966E-6	-61.544679
1.549705E-6	-67.121983
1.54975E-6	-70.867691
1.549795E-6	-71.825007
1.54984E-6	-69.629721
1.549885E-6	-61.860189
1.54993E-6	-46.621416
1.549975E-6	-37.358908
1.55002E-6	-34.256214
1.550065E-6	-33.162327
1.55011E-6	-32.971388
1.550155E-6	-32.931969
1.5502E-6	-32.943073
1.550245E-6	-32.968807
1.55029E-6	-33.605135
1.550335E-6	-36.259853
1.55038E-6	-42.095741
1.550425E-6	-54.169146
1.55047E-6	-61.52489
1.550515E-6	-67.983298
1.55056E-6	-71.273194
1.550605E-6	-71.665341
1.55065E-6	-68.690233
1.550695E-6	-59.685915
1.55074E-6	-43.043432
1.550785E-6	-36.544302
1.55083E-6	-33.936186
1.550875E-6	-33.091839
1.55092E-6	-32.933675
1.550965E-6	-32.902214
1.55101E-6	-32.870138
1.551055E-6	-32.965367
1.5511E-6	-33.966391
1.551145E-6	-37.23768
1.55119E-6	-44.110564
1.551235E-6	-55.975667
1.55128E-6	-62.895441
1.551325E-6	-68.917733
1.55137E-6	-71.618438
1.551415E-6	-71.519957
1.55146E-6	-67.454519
1.551505E-6	-56.998395
1.55155E-6	-41.85486
1.551595E-6	-36.127882
1.55164E-6	-33.790316
1.551685E-6	-33.089185
1.55173E-6	-32.981731
1.551775E-6	-32.960212
1.55182E-6	-32.933675
1.551865E-6	-33.079466
1.55191E-6	-34.349791
1.551955E-6	-38.164455
1.552E-6	-45.749551
1.552045E-6	-57.325936
1.55209E-6	-64.045038
1.552135E-6	-69.438577
1.55218E-6	-71.620961
1.552225E-6	-71.072934
1.55227E-6	-66.283781
1.552315E-6	-53.565473
1.55236E-6	-40.350807
1.552405E-6	-35.649524
1.55245E-6	-33.541849
1.552495E-6	-33.053071
1.55254E-6	-32.992098
1.552585E-6	-32.939653
1.55263E-6	-32.906452
1.552675E-6	-33.170431
1.55272E-6	-34.787311
1.552765E-6	-39.197344
1.55281E-6	-47.562181
1.552855E-6	-59.132843
1.5529E-6	-65.287083
1.552945E-6	-69.922522
1.55299E-6	-71.798642
1.553035E-6	-70.763416
1.55308E-6	-65.194182
1.553125E-6	-51.545919
1.55317E-6	-39.237237
1.553215E-6	-35.061239
1.55326E-6	-33.32547
1.553305E-6	-32.932822
1.55335E-6	-32.849163
1.553395E-6	-32.813323
1.55344E-6	-32.790968
1.553485E-6	-33.162327
1.55353E-6	-35.073793
1.553575E-6	-39.408154
1.55362E-6	-48.712777
1.553665E-6	-59.562449
1.55371E-6	-65.725139
1.553755E-6	-70.113965
1.5538E-6	-71.746388
1.553845E-6	-70.525663
1.55389E-6	-64.272445
1.553935E-6	-49.838026
1.55398E-6	-38.658229
1.554025E-6	-34.869156
1.55407E-6	-33.411304
1.554115E-6	-33.052194
1.55416E-6	-32.948208
1.554205E-6	-32.915791
1.55425E-6	-32.924298
1.554295E-6	-33.320803
1.55434E-6	-35.350636
1.554385E-6	-40.074465
1.55443E-6	-50.036635
1.554475E-6	-60.827046
1.55452E-6	-66.567884
1.554565E-6	-70.521743
1.55461E-6	-71.921269
1.554655E-6	-70.065197
1.5547E-6	-63.118472
1.554745E-6	-48.356471
1.55479E-6	-38.032713
1.554835E-6	-34.685211
1.55488E-6	-33.350761
1.554925E-6	-33.058337
1.55497E-6	-32.993828
1.555015E-6	-32.976556
1.55506E-6	-33.004224
1.555105E-6	-33.457272
1.55515E-6	-35.702477
1.555195E-6	-40.785216
1.55524E-6	-51.089088
1.555285E-6	-61.469105
1.55533E-6	-66.844495
1.555375E-6	-70.849697
1.55542E-6	-71.994891
1.555465E-6	-69.50782
1.55551E-6	-61.890957
1.555555E-6	-46.667543
1.5556E-6	-37.503126
1.555645E-6	-34.377071
1.55569E-6	-33.278097
1.555735E-6	-33.040807
1.55578E-6	-32.997291
1.555825E-6	-32.977418
1.55587E-6	-33.009431
1.555915E-6	-33.49984
1.55596E-6	-35.851937
1.556005E-6	-41.286606
1.55605E-6	-51.78552
1.556095E-6	-61.942953
1.55614E-6	-67.321246
1.556185E-6	-70.940962
1.55623E-6	-71.78421
1.556275E-6	-69.480761
1.55632E-6	-61.696038
1.556365E-6	-46.380834
1.55641E-6	-37.375489
1.556455E-6	-34.22853
1.5565E-6	-33.084765
1.556545E-6	-32.851675
1.55659E-6	-32.821631
1.556635E-6	-32.802545
1.55668E-6	-32.838297
1.556725E-6	-33.480439
1.55677E-6	-36.071273
1.556815E-6	-41.732775
1.55686E-6	-52.340336
1.556905E-6	-62.236621
1.55695E-6	-67.639669
1.556995E-6	-71.038597
1.55704E-6	-71.976368
1.557085E-6	-69.329291
1.55713E-6	-61.489864
1.557175E-6	-46.256183
1.55722E-6	-37.178312
1.557265E-6	-34.156688
1.55731E-6	-33.07065
1.557355E-6	-32.845817
1.5574E-6	-32.817475
1.557445E-6	-32.840802
1.55749E-6	-32.876871
1.557535E-6	-33.574366
1.55758E-6	-36.259853
1.557625E-6	-42.012803
1.55767E-6	-52.597163
1.557715E-6	-62.530546
1.55776E-6	-67.796304
1.557805E-6	-71.167361
1.55785E-6	-71.834936
1.557895E-6	-69.333014
1.55794E-6	-61.254022
1.557985E-6	-44.535807
1.55803E-6	-37.263044
1.558075E-6	-34.12289
1.55812E-6	-32.987775
1.558165E-6	-32.75888
1.55821E-6	-32.727842
1.558255E-6	-32.749873
1.5583E-6	-32.814153
1.558345E-6	-33.542831
1.55839E-6	-36.318991
1.558435E-6	-42.186755
1.55848E-6	-52.94992
1.558525E-6	-61.202162
1.55857E-6	-67.950665
1.558615E-6	-71.258662
1.55866E-6	-71.932775
1.558705E-6	-69.333014
1.55875E-6	-61.153179
1.558795E-6	-44.527177
1.55884E-6	-37.203331
1.558885E-6	-34.156688
1.55893E-6	-33.144374
1.558975E-6	-32.948208
1.55902E-6	-32.938799
1.559065E-6	-32.976556
1.55911E-6	-33.038184
1.559155E-6	-33.759243
1.5592E-6	-36.407338
1.559245E-6	-42.015565
1.55929E-6	-52.92515
1.559335E-6	-61.255182
1.55938E-6	-68.021683
1.559425E-6	-71.431503
1.55947E-6	-71.988022
1.559515E-6	-69.259153
1.55956E-6	-60.921589
1.559605E-6	-44.293403
1.55965E-6	-37.068585
1.559695E-6	-34.160082
1.55974E-6	-33.150649
1.559785E-6	-32.970528
1.55983E-6	-32.993828
1.559875E-6	-33.033815
1.55992E-6	-33.114022
1.559965E-6	-33.846813
1.56001E-6	-36.480105
1.560055E-6	-42.433639
1.5601E-6	-53.888079
1.560145E-6	-61.489252
1.56019E-6	-67.996968
1.560235E-6	-71.276106
1.56028E-6	-72.26433
1.560325E-6	-69.629721
1.56037E-6	-61.970895
1.560415E-6	-46.579723
1.56046E-6	-37.293212
1.560505E-6	-34.162346
1.56055E-6	-33.032942
1.560595E-6	-32.848326
1.56064E-6	-32.865935
1.560685E-6	-32.913242
1.56073E-6	-33.004224
1.560775E-6	-33.769576
1.56082E-6	-36.501399
1.560865E-6	-42.27385
1.56091E-6	-53.817427
1.560955E-6	-61.331222
1.561E-6	-67.93444
1.561045E-6	-71.288943
1.56109E-6	-72.127521
1.561135E-6	-69.617774
1.56118E-6	-62.104898
1.561225E-6	-46.720284
1.56127E-6	-37.23998
1.561315E-6	-34.097156
1.56136E-6	-33.009431
1.561405E-6	-32.829956
1.56145E-6	-32.855026
1.561495E-6	-32.918341
1.56154E-6	-33.005959
1.561585E-6	-33.638131
1.56163E-6	-36.138579
1.561675E-6	-41.726954
1.56172E-6	-52.067686
1.561765E-6	-62.199709
1.56181E-6	-67.572102
1.561855E-6	-71.074602
1.5619E-6	-72.172408
1.561945E-6	-70.124231
1.56199E-6	-63.614109
1.562035E-6	-48.53252
1.56208E-6	-38.08549
1.562125E-6	-34.450265
1.56217E-6	-33.088301
1.562215E-6	-32.859218
1.56226E-6	-32.889524
1.562305E-6	-32.956779
1.56235E-6	-33.03731
1.562395E-6	-33.509574
1.56244E-6	-35.646335
1.562485E-6	-40.485653
1.56253E-6	-50.059469
1.562575E-6	-60.848113
1.56262E-6	-66.765416
1.562665E-6	-70.730919
1.56271E-6	-72.31732
1.562755E-6	-70.647951
1.5628E-6	-64.555599
1.562845E-6	-50
1.56289E-6	-38.632794
1.562935E-6	-34.600462
1.56298E-6	-33.058337
1.563025E-6	-32.784367
1.56307E-6	-32.803373
1.563115E-6	-32.892904
1.56316E-6	-33.016384
1.563205E-6	-33.429441
1.56325E-6	-35.446982
1.563295E-6	-39.922522
1.56334E-6	-49.808837
1.563385E-6	-60.623317
1.56343E-6	-66.307841
1.563475E-6	-70.560111
1.56352E-6	-72.302535
1.563565E-6	-70.866101
1.56361E-6	-65.472938
1.563655E-6	-51.947711
1.5637E-6	-39.359166
1.563745E-6	-34.854522
1.56379E-6	-33.059215
1.563835E-6	-32.749055
1.56388E-6	-32.789317
1.563925E-6	-32.880241
1.56397E-6	-32.977418
1.564015E-6	-33.323603
1.56406E-6	-34.989407
1.564105E-6	-39.434763
1.56415E-6	-48.167302
1.564195E-6	-59.423339
1.56424E-6	-65.55799
1.564285E-6	-70.14349
1.56433E-6	-72.269453
1.564375E-6	-71.526124
1.56442E-6	-66.689778
1.564465E-6	-54.689045
1.56451E-6	-40.709389
1.564555E-6	-35.509847
1.5646E-6	-33.314277
1.564645E-6	-32.867615
1.56469E-6	-32.898826
1.564735E-6	-32.986047
1.56478E-6	-33.088301
1.564825E-6	-33.363933
1.56487E-6	-34.816177
1.564915E-6	-38.790972
1.56496E-6	-46.716204
1.565005E-6	-58.410347
1.56505E-6	-64.727569
1.565095E-6	-69.706162
1.56514E-6	-72.309182
1.565185E-6	-71.935487
1.56523E-6	-68.262312
1.565275E-6	-58.021683
1.56532E-6	-41.941595
1.565365E-6	-35.775743
1.56541E-6	-33.410352
1.565455E-6	-32.785191
1.5655E-6	-32.785191
1.565545E-6	-32.887835
1.56559E-6	-32.988639
1.565635E-6	-33.214816
1.56568E-6	-34.445428
1.565725E-6	-38.068754
1.56577E-6	-45.325399
1.565815E-6	-56.90157
1.56586E-6	-63.658251
1.565905E-6	-69.621752
1.56595E-6	-72.262867
1.565995E-6	-72.37997
1.56604E-6	-69.270153
1.566085E-6	-60.607804
1.56613E-6	-43.910463
1.566175E-6	-36.653452
1.56622E-6	-33.774751
1.566265E-6	-32.881085
1.56631E-6	-32.849163
1.566355E-6	-32.935383
1.5664E-6	-33.039058
1.566445E-6	-33.237638
1.56649E-6	-34.222785
1.566535E-6	-37.363639
1.56658E-6	-43.81429
1.566625E-6	-55.488278
1.56667E-6	-62.876029
1.566715E-6	-69.08333
1.56676E-6	-72.435921
1.566805E-6	-73.632113
1.56685E-6	-74.234283
1.566895E-6	-73.37809
1.56694E-6	-69.465374
1.566985E-6	-65.480601
1.56703E-6	-63.749964
1.567075E-6	-63.293831
1.56712E-6	-63.208448
1.567165E-6	-63.245883
1.56721E-6	-63.284569
1.567255E-6	-63.329208
1.5673E-6	-63.446694
1.567345E-6	-64.255057
1.56739E-6	-66.460838
1.567435E-6	-69.93962
1.56748E-6	-73.263341
1.567525E-6	-74.472101
1.56757E-6	-74.76774
1.567615E-6	-74.91605
1.56766E-6	-74.830682
1.567705E-6	-74.225082
1.56775E-6	-70.757207
1.567795E-6	-66.556077
1.56784E-6	-64.624327
1.567885E-6	-64.000078
1.56793E-6	-63.908326
1.567975E-6	-63.898724
1.56802E-6	-63.928668
1.568065E-6	-63.99136
1.56811E-6	-64.091582
1.568155E-6	-64.628108
1.5682E-6	-66.476245
1.568245E-6	-69.542859
1.56829E-6	-73.209357
1.568335E-6	-74.417716
1.56838E-6	-74.854522
1.568425E-6	-75.059846
1.56847E-6	-75.103227
1.568515E-6	-74.483061
1.56856E-6	-72.162393
1.568605E-6	-68.279812
1.56865E-6	-65.603516
1.568695E-6	-64.676279
1.56874E-6	-64.587953
1.568785E-6	-64.595454
1.56883E-6	-64.613006
1.568875E-6	-64.606729
1.56892E-6	-64.696722
1.568965E-6	-65.127202
1.56901E-6	-66.605486
1.569055E-6	-69.582127
1.5691E-6	-72.707542
1.569145E-6	-74.61175
1.56919E-6	-74.87449
1.569235E-6	-74.457532
1.56928E-6	-74.489161
1.569325E-6	-74.936303
1.56937E-6	-73.480439
1.569415E-6	-69.590023
1.56946E-6	-66.560009
1.569505E-6	-65.485206
1.56955E-6	-65.294425
1.569595E-6	-65.198493
1.56964E-6	-65.259295
1.569685E-6	-65.287083
1.56973E-6	-65.313573
1.569775E-6	-65.540846
1.56982E-6	-66.798537
1.569865E-6	-69.266483
1.56991E-6	-72.353756
1.569955E-6	-74.690323
1.57E-6	-74.990778
