Wavelength (nm)	Power (dBm)
1.525E-6	-47.964232
1.525045E-6	-47.785858
1.52509E-6	-47.639669
1.525135E-6	-47.562181
1.52518E-6	-47.440043
1.525225E-6	-47.297871
1.52527E-6	-47.14893
1.525315E-6	-47.015836
1.52536E-6	-46.8867
1.525405E-6	-46.73869
1.52545E-6	-46.581699
1.525495E-6	-46.416844
1.52554E-6	-46.223296
1.525585E-6	-46.018863
1.52563E-6	-45.880438
1.525675E-6	-45.751184
1.52572E-6	-45.614577
1.525765E-6	-45.491353
1.52581E-6	-45.353614
1.525855E-6	-45.331324
1.5259E-6	-45.238933
1.525945E-6	-45.22011
1.52599E-6	-45.15131
1.526035E-6	-45.041782
1.52608E-6	-44.944431
1.526125E-6	-44.90663
1.52617E-6	-44.782084
1.526215E-6	-44.626847
1.52626E-6	-44.489161
1.526305E-6	-44.23083
1.52635E-6	-44.03953
1.526395E-6	-43.969639
1.52644E-6	-43.836295
1.526485E-6	-43.708963
1.52653E-6	-43.628106
1.526575E-6	-43.514448
1.52662E-6	-43.46884
1.526665E-6	-43.482376
1.52671E-6	-43.524214
1.526755E-6	-43.465945
1.5268E-6	-43.428485
1.526845E-6	-43.339503
1.52689E-6	-43.2468
1.526935E-6	-43.165927
1.52698E-6	-43.067128
1.527025E-6	-42.94564
1.52707E-6	-42.687337
1.527115E-6	-42.551596
1.52716E-6	-42.432878
1.527205E-6	-42.294425
1.52725E-6	-42.257751
1.527295E-6	-42.143143
1.52734E-6	-42.107014
1.527385E-6	-42.034257
1.52743E-6	-42.119731
1.527475E-6	-42.226457
1.52752E-6	-42.248266
1.527565E-6	-42.244624
1.52761E-6	-42.212701
1.527655E-6	-42.174557
1.5277E-6	-42.080288
1.527745E-6	-42.064191
1.52779E-6	-41.975684
1.527835E-6	-41.792076
1.52788E-6	-41.550881
1.527925E-6	-41.374512
1.52797E-6	-41.342448
1.528015E-6	-41.307683
1.52806E-6	-41.262726
1.528105E-6	-41.270284
1.52815E-6	-41.259823
1.528195E-6	-41.270284
1.52824E-6	-41.447838
1.528285E-6	-41.606477
1.52833E-6	-41.709537
1.528375E-6	-41.662793
1.52842E-6	-41.624747
1.528465E-6	-41.629168
1.52851E-6	-41.57578
1.528555E-6	-41.550881
1.5286E-6	-41.418841
1.528645E-6	-41.217081
1.52869E-6	-40.997968
1.528735E-6	-40.964759
1.52878E-6	-40.927499
1.528825E-6	-40.933956
1.52887E-6	-40.965844
1.528915E-6	-40.956091
1.52896E-6	-41.007816
1.529005E-6	-41.176463
1.52905E-6	-41.428485
1.529095E-6	-41.586405
1.52914E-6	-41.582027
1.529185E-6	-41.612768
1.52923E-6	-41.593921
1.529275E-6	-41.588283
1.52932E-6	-41.585154
1.529365E-6	-41.494763
1.52941E-6	-41.279603
1.529455E-6	-41.074046
1.5295E-6	-40.952845
1.529545E-6	-40.967472
1.52959E-6	-40.985417
1.529635E-6	-40.993598
1.52968E-6	-40.972902
1.529725E-6	-41.027029
1.52977E-6	-41.189008
1.529815E-6	-41.511338
1.52986E-6	-41.695396
1.529905E-6	-41.732128
1.52995E-6	-41.761347
1.529995E-6	-41.758742
1.53004E-6	-41.758742
1.530085E-6	-41.827653
1.53013E-6	-41.73666
1.530175E-6	-41.490476
1.53022E-6	-41.245336
1.530265E-6	-41.096349
1.53031E-6	-41.100264
1.530355E-6	-41.118767
1.5304E-6	-41.115397
1.530445E-6	-41.112029
1.53049E-6	-41.131146
1.530535E-6	-41.276689
1.53058E-6	-41.558336
1.530625E-6	-41.832948
1.53067E-6	-41.91654
1.530715E-6	-41.938879
1.53076E-6	-41.982534
1.530805E-6	-41.959969
1.53085E-6	-41.992142
1.530895E-6	-41.930065
1.53094E-6	-41.735365
1.530985E-6	-41.490476
1.53103E-6	-41.285438
1.531075E-6	-41.202735
1.53112E-6	-41.210189
1.531165E-6	-41.264469
1.53121E-6	-41.210763
1.531255E-6	-41.245914
1.5313E-6	-41.297717
1.531345E-6	-41.575156
1.53139E-6	-41.874208
1.531435E-6	-42.00246
1.53148E-6	-42.047458
1.531525E-6	-42.066986
1.53157E-6	-42.087305
1.531615E-6	-42.061398
1.53166E-6	-42.084497
1.531705E-6	-41.963381
1.53175E-6	-41.677466
1.531795E-6	-41.387046
1.53184E-6	-41.314143
1.531885E-6	-41.364392
1.53193E-6	-41.330632
1.531975E-6	-41.29362
1.53202E-6	-41.302404
1.532065E-6	-41.347775
1.53211E-6	-41.517493
1.532155E-6	-41.876884
1.5322E-6	-42.052332
1.532245E-6	-42.101374
1.53229E-6	-42.135325
1.532335E-6	-42.148126
1.53238E-6	-42.152401
1.532425E-6	-42.131067
1.53247E-6	-42.103488
1.532515E-6	-41.874208
1.53256E-6	-41.551502
1.532605E-6	-41.416433
1.53265E-6	-41.387644
1.532695E-6	-41.37332
1.53274E-6	-41.344815
1.532785E-6	-41.350145
1.53283E-6	-41.409819
1.532875E-6	-41.526742
1.53292E-6	-41.790108
1.532965E-6	-42.065589
1.53301E-6	-42.151688
1.533055E-6	-42.12327
1.5331E-6	-42.148126
1.533145E-6	-42.207644
1.53319E-6	-42.225007
1.533235E-6	-42.157394
1.53328E-6	-42.036338
1.533325E-6	-41.781591
1.53337E-6	-41.54282
1.533415E-6	-41.499667
1.53346E-6	-41.522423
1.533505E-6	-41.45087
1.53355E-6	-41.478861
1.533595E-6	-41.526124
1.53364E-6	-41.577653
1.533685E-6	-41.717269
1.53373E-6	-41.983905
1.533775E-6	-42.157394
1.53382E-6	-42.219211
1.533865E-6	-42.225732
1.53391E-6	-42.225007
1.533955E-6	-42.24608
1.534E-6	-42.206922
1.534045E-6	-42.160964
1.53409E-6	-42.004527
1.534135E-6	-41.746388
1.53418E-6	-41.658337
1.534225E-6	-41.657065
1.53427E-6	-41.608363
1.534315E-6	-41.62033
1.53436E-6	-41.638659
1.534405E-6	-41.67555
1.53445E-6	-41.732128
1.534495E-6	-41.944991
1.53454E-6	-42.17026
1.534585E-6	-42.233714
1.53463E-6	-42.257751
1.534675E-6	-42.259212
1.53472E-6	-42.269453
1.534765E-6	-42.257751
1.53481E-6	-42.260674
1.534855E-6	-42.136035
1.5349E-6	-41.943632
1.534945E-6	-41.808511
1.53499E-6	-41.741846
1.535035E-6	-41.72954
1.53508E-6	-41.74509
1.535125E-6	-41.760695
1.53517E-6	-41.756789
1.535215E-6	-41.796672
1.53526E-6	-41.949071
1.535305E-6	-42.163822
1.53535E-6	-42.258481
1.535395E-6	-42.271651
1.53544E-6	-42.276049
1.535485E-6	-42.270185
1.53553E-6	-42.24608
1.535575E-6	-42.243168
1.53562E-6	-42.208366
1.535665E-6	-42.066986
1.53571E-6	-41.91789
1.535755E-6	-41.83825
1.5358E-6	-41.769172
1.535845E-6	-41.794702
1.53589E-6	-41.788797
1.535935E-6	-41.827653
1.53598E-6	-41.82633
1.536025E-6	-41.897675
1.53607E-6	-42.03981
1.536115E-6	-42.186755
1.53616E-6	-42.232988
1.536205E-6	-42.225007
1.53625E-6	-42.225007
1.536295E-6	-42.219935
1.53634E-6	-42.218487
1.536385E-6	-42.193227
1.53643E-6	-42.136035
1.536475E-6	-41.9382
1.53652E-6	-41.84024
1.536565E-6	-41.778973
1.53661E-6	-41.809169
1.536655E-6	-41.821042
1.5367E-6	-41.778973
1.536745E-6	-41.808511
1.53679E-6	-41.790764
1.536835E-6	-41.917215
1.53688E-6	-42.106308
1.536925E-6	-42.14599
1.53697E-6	-42.152401
1.537015E-6	-42.158822
1.53706E-6	-42.103488
1.537105E-6	-42.16025
1.53715E-6	-42.167398
1.537195E-6	-42.080288
1.53724E-6	-42.001772
1.537285E-6	-41.826991
1.53733E-6	-41.735365
1.537375E-6	-41.741846
1.53742E-6	-41.740549
1.537465E-6	-41.769825
1.53751E-6	-41.756789
1.537555E-6	-41.732775
1.5376E-6	-41.77505
1.537645E-6	-41.932097
1.53769E-6	-42.060002
1.537735E-6	-42.097852
1.53778E-6	-42.114074
1.537825E-6	-42.086603
1.53787E-6	-42.104193
1.537915E-6	-42.095741
1.53796E-6	-42.083795
1.538005E-6	-41.996954
1.53805E-6	-41.853529
1.538095E-6	-41.749636
1.53814E-6	-41.733422
1.538185E-6	-41.724369
1.53823E-6	-41.748986
1.538275E-6	-41.697322
1.53832E-6	-41.690907
1.538365E-6	-41.734717
1.53841E-6	-41.828314
1.538455E-6	-41.966795
1.5385E-6	-42.065589
1.538545E-6	-42.069084
1.53859E-6	-42.078886
1.538635E-6	-42.082392
1.53868E-6	-42.095741
1.538725E-6	-42.067686
1.53877E-6	-42.054422
1.538815E-6	-41.930742
1.53886E-6	-41.772437
1.538905E-6	-41.756789
1.53895E-6	-41.719849
1.538995E-6	-41.722431
1.53904E-6	-41.734069
1.539085E-6	-41.710824
1.53913E-6	-41.723723
1.539175E-6	-41.796015
1.53922E-6	-41.92465
1.539265E-6	-42.045371
1.53931E-6	-42.090115
1.539355E-6	-42.114781
1.5394E-6	-42.116902
1.539445E-6	-42.120439
1.53949E-6	-42.121854
1.539535E-6	-42.112661
1.53958E-6	-42.032176
1.539625E-6	-41.897675
1.53967E-6	-41.78421
1.539715E-6	-41.752235
1.53976E-6	-41.775704
1.539805E-6	-41.760044
1.53985E-6	-41.768519
1.539895E-6	-41.764606
1.53994E-6	-41.798642
1.539985E-6	-41.908445
1.54003E-6	-42.046762
1.540075E-6	-42.138877
1.54012E-6	-42.169544
1.540165E-6	-42.185319
1.54021E-6	-42.178859
1.540255E-6	-42.182446
1.5403E-6	-42.17599
1.540345E-6	-42.15454
1.54039E-6	-42.051635
1.540435E-6	-41.893643
1.54048E-6	-41.830962
1.540525E-6	-41.815761
1.54057E-6	-41.819722
1.540615E-6	-41.811146
1.54066E-6	-41.804561
1.540705E-6	-41.835598
1.54075E-6	-41.898347
1.540795E-6	-42.029403
1.54084E-6	-42.158108
1.540885E-6	-42.221384
1.54093E-6	-42.266525
1.540975E-6	-42.257751
1.54102E-6	-42.27825
1.541065E-6	-42.272384
1.54111E-6	-42.263598
1.541155E-6	-42.208366
1.5412E-6	-42.029403
1.541245E-6	-41.946351
1.54129E-6	-41.874208
1.541335E-6	-41.861522
1.54138E-6	-41.845551
1.541425E-6	-41.871535
1.54147E-6	-41.874208
1.541515E-6	-41.900365
1.54156E-6	-42.003149
1.541605E-6	-42.15454
1.54165E-6	-42.251912
1.541695E-6	-42.332898
1.54174E-6	-42.315839
1.541785E-6	-42.35525
1.54183E-6	-42.289272
1.541875E-6	-42.114074
1.54192E-6	-40.40148
1.541965E-6	-29.767475
1.54201E-6	-22.292216
1.542055E-6	-19.168559
1.5421E-6	-18.233301
1.542145E-6	-18.052082
1.54219E-6	-17.986029
1.542235E-6	-17.94525
1.54228E-6	-18.091083
1.542325E-6	-19.347939
1.54237E-6	-23.029451
1.542415E-6	-30.671205
1.54246E-6	-39.411945
1.542505E-6	-41.749636
1.54255E-6	-42.287066
1.542595E-6	-42.388995
1.54264E-6	-42.388995
1.542685E-6	-42.4071
1.54273E-6	-42.377717
1.542775E-6	-42.251912
1.54282E-6	-42.092927
1.542865E-6	-41.999018
1.54291E-6	-41.970895
1.542955E-6	-41.965429
1.543E-6	-41.992829
1.543045E-6	-41.994204
1.54309E-6	-41.994891
1.543135E-6	-42.0607
1.54318E-6	-42.224282
1.543225E-6	-42.391254
1.54327E-6	-42.461872
1.543315E-6	-42.491061
1.54336E-6	-42.501092
1.543405E-6	-42.471836
1.54345E-6	-42.367218
1.543495E-6	-41.737956
1.54354E-6	-33.406544
1.543585E-6	-24.090468
1.54363E-6	-20.039263
1.543675E-6	-18.59492
1.54372E-6	-18.294449
1.543765E-6	-18.213108
1.54381E-6	-18.215987
1.543855E-6	-18.253588
1.5439E-6	-19.034376
1.543945E-6	-21.820382
1.54399E-6	-28.250684
1.544035E-6	-37.708303
1.54408E-6	-41.526124
1.544125E-6	-42.36572
1.54417E-6	-42.512694
1.544215E-6	-42.559418
1.54426E-6	-42.575105
1.544305E-6	-42.570393
1.54435E-6	-42.453459
1.544395E-6	-42.265061
1.54444E-6	-42.123979
1.544485E-6	-42.086603
1.54453E-6	-42.095741
1.544575E-6	-42.111249
1.54462E-6	-42.123979
1.544665E-6	-42.109131
1.54471E-6	-42.156681
1.544755E-6	-42.285595
1.5448E-6	-42.501864
1.544845E-6	-42.623304
1.54489E-6	-42.654402
1.544935E-6	-42.644011
1.54498E-6	-42.626483
1.545025E-6	-42.588484
1.54507E-6	-42.270185
1.545115E-6	-38.121974
1.54516E-6	-26.377061
1.545205E-6	-21.159414
1.54525E-6	-19.003194
1.545295E-6	-18.471004
1.54534E-6	-18.422411
1.545385E-6	-18.419392
1.54543E-6	-18.404328
1.545475E-6	-18.768019
1.54552E-6	-20.701725
1.545565E-6	-25.647929
1.54561E-6	-34.649592
1.545655E-6	-40.876185
1.5457E-6	-42.346295
1.545745E-6	-42.644809
1.54579E-6	-42.704303
1.545835E-6	-42.732728
1.54588E-6	-42.730284
1.545925E-6	-42.659206
1.54597E-6	-42.474138
1.546015E-6	-42.299584
1.54606E-6	-42.236621
1.546105E-6	-42.241712
1.54615E-6	-42.24244
1.546195E-6	-42.232988
1.54624E-6	-42.22066
1.546285E-6	-42.240984
1.54633E-6	-42.363474
1.546375E-6	-42.559418
1.54642E-6	-42.725401
1.546465E-6	-42.76955
1.54651E-6	-42.771194
1.546555E-6	-42.780246
1.5466E-6	-42.772838
1.546645E-6	-42.623304
1.54669E-6	-41.45937
1.546735E-6	-31.076271
1.54678E-6	-22.935383
1.546825E-6	-19.665762
1.54687E-6	-18.579235
1.546915E-6	-18.425432
1.54696E-6	-18.377344
1.547005E-6	-18.353498
1.54705E-6	-18.480176
1.547095E-6	-19.578184
1.54714E-6	-22.888679
1.547185E-6	-30.012177
1.54723E-6	-39.288547
1.547275E-6	-42.085199
1.54732E-6	-42.674454
1.547365E-6	-42.799234
1.54741E-6	-42.844144
1.547455E-6	-42.849163
1.5475E-6	-42.806687
1.547545E-6	-42.654402
1.54759E-6	-42.467234
1.547635E-6	-42.354503
1.54768E-6	-42.322506
1.547725E-6	-42.334384
1.54777E-6	-42.323989
1.547815E-6	-42.333641
1.54786E-6	-42.339591
1.547905E-6	-42.397283
1.54795E-6	-42.564118
1.547995E-6	-42.749873
1.54804E-6	-42.850838
1.548085E-6	-42.876029
1.54813E-6	-42.888679
1.548175E-6	-42.881085
1.54822E-6	-42.816644
1.548265E-6	-42.431358
1.54831E-6	-36.779876
1.548355E-6	-25.851937
1.5484E-6	-20.850754
1.548445E-6	-18.91435
1.54849E-6	-18.45576
1.548535E-6	-18.410347
1.54858E-6	-18.368386
1.548625E-6	-18.398317
1.54867E-6	-18.800846
1.548715E-6	-20.875122
1.54876E-6	-26.043242
1.548805E-6	-35.323919
1.54885E-6	-41.161115
1.548895E-6	-42.564902
1.54894E-6	-42.85335
1.548985E-6	-42.896287
1.54903E-6	-42.903909
1.549075E-6	-42.882771
1.54912E-6	-42.813323
1.549165E-6	-42.637629
1.54921E-6	-42.474906
1.549255E-6	-42.389747
1.5493E-6	-42.373214
1.549345E-6	-42.355997
1.54939E-6	-42.361978
1.549435E-6	-42.375465
1.54948E-6	-42.395021
1.549525E-6	-42.483361
1.54957E-6	-42.67365
1.549615E-6	-42.836627
1.54966E-6	-42.914092
1.549705E-6	-42.924298
1.54975E-6	-42.926002
1.549795E-6	-42.885302
1.54984E-6	-42.746602
1.549885E-6	-41.780282
1.54993E-6	-31.769172
1.549975E-6	-23.364875
1.55002E-6	-19.838026
1.550065E-6	-18.664611
1.55011E-6	-18.467951
1.550155E-6	-18.44664
1.5502E-6	-18.428456
1.550245E-6	-18.480176
1.55029E-6	-19.248181
1.550335E-6	-22.039116
1.55038E-6	-28.800846
1.550425E-6	-38.383326
1.55047E-6	-41.909119
1.550515E-6	-42.720523
1.55056E-6	-42.868456
1.550605E-6	-42.887835
1.55065E-6	-42.903061
1.550695E-6	-42.886146
1.55074E-6	-42.767086
1.550785E-6	-42.553159
1.55083E-6	-42.413152
1.550875E-6	-42.357491
1.55092E-6	-42.350024
1.550965E-6	-42.35077
1.55101E-6	-42.357491
1.551055E-6	-42.359734
1.5511E-6	-42.376216
1.551145E-6	-42.514244
1.55119E-6	-42.738435
1.551235E-6	-42.879399
1.55128E-6	-42.919192
1.551325E-6	-42.908997
1.55137E-6	-42.89375
1.551415E-6	-42.856702
1.55146E-6	-42.616952
1.551505E-6	-40.191334
1.55155E-6	-28.395315
1.551595E-6	-21.976368
1.55164E-6	-19.295927
1.551685E-6	-18.569852
1.55173E-6	-18.437538
1.551775E-6	-18.443604
1.55182E-6	-18.434508
1.551865E-6	-18.607508
1.55191E-6	-20.006084
1.551955E-6	-23.970723
1.552E-6	-32.114781
1.552045E-6	-40.003041
1.55209E-6	-42.335128
1.552135E-6	-42.784367
1.55218E-6	-42.864255
1.552225E-6	-42.884458
1.55227E-6	-42.897134
1.552315E-6	-42.846653
1.55236E-6	-42.660808
1.552405E-6	-42.436682
1.55245E-6	-42.323248
1.552495E-6	-42.30106
1.55254E-6	-42.324731
1.552585E-6	-42.31806
1.55263E-6	-42.30106
1.552675E-6	-42.310661
1.55272E-6	-42.373214
1.552765E-6	-42.571963
1.55281E-6	-42.789317
1.552855E-6	-42.888679
1.5529E-6	-42.895441
1.552945E-6	-42.879399
1.55299E-6	-42.869297
1.553035E-6	-42.80503
1.55308E-6	-42.354503
1.553125E-6	-36.14215
1.55317E-6	-25.230235
1.553215E-6	-20.490027
1.55326E-6	-18.677403
1.553305E-6	-18.282735
1.55335E-6	-18.218867
1.553395E-6	-18.184422
1.55344E-6	-18.164455
1.553485E-6	-18.582368
1.55353E-6	-20.623317
1.553575E-6	-25.564241
1.55362E-6	-34.786004
1.553665E-6	-40.86504
1.55371E-6	-42.48413
1.553755E-6	-42.799234
1.5538E-6	-42.860896
1.553845E-6	-42.885302
1.55389E-6	-42.880241
1.553935E-6	-42.788492
1.55398E-6	-42.562551
1.554025E-6	-42.371714
1.55407E-6	-42.295162
1.554115E-6	-42.27825
1.55416E-6	-42.279718
1.554205E-6	-42.268721
1.55425E-6	-42.253371
1.554295E-6	-42.273116
1.55434E-6	-42.382225
1.554385E-6	-42.608234
1.55443E-6	-42.802545
1.554475E-6	-42.876029
1.55452E-6	-42.886146
1.554565E-6	-42.89375
1.55461E-6	-42.901367
1.554655E-6	-42.903061
1.5547E-6	-42.890369
1.554745E-6	-42.776952
1.55479E-6	-42.541448
1.554835E-6	-42.35077
1.55488E-6	-42.268721
1.554925E-6	-42.25629
1.55497E-6	-42.240984
1.555015E-6	-42.23081
1.55506E-6	-42.231536
1.555105E-6	-42.266525
1.55515E-6	-42.382225
1.555195E-6	-42.604277
1.55524E-6	-42.801717
1.555285E-6	-42.876029
1.55533E-6	-42.883615
1.555375E-6	-42.891214
1.55542E-6	-42.89375
1.555465E-6	-42.892059
1.55551E-6	-42.860057
1.555555E-6	-42.735173
1.5556E-6	-42.498775
1.555645E-6	-42.321765
1.55569E-6	-42.25483
1.555735E-6	-42.232988
1.55578E-6	-42.222833
1.555825E-6	-42.21487
1.55587E-6	-42.219935
1.555915E-6	-42.262136
1.55596E-6	-42.38448
1.556005E-6	-42.605068
1.55605E-6	-42.788492
1.556095E-6	-42.870979
1.55614E-6	-42.881085
1.556185E-6	-42.888679
1.55623E-6	-42.881928
1.556275E-6	-42.874345
1.55632E-6	-42.848326
1.556365E-6	-42.738435
1.55641E-6	-42.498003
1.556455E-6	-42.302535
1.5565E-6	-42.237348
1.556545E-6	-42.22066
1.55659E-6	-42.210533
1.556635E-6	-42.210533
1.55668E-6	-42.219211
1.556725E-6	-42.241712
1.55677E-6	-42.367218
1.556815E-6	-42.603486
1.55686E-6	-42.790143
1.556905E-6	-42.870138
1.55695E-6	-42.891214
1.556995E-6	-42.890369
1.55704E-6	-42.88699
1.557085E-6	-42.881928
1.55713E-6	-42.855864
1.557175E-6	-42.739251
1.55722E-6	-42.481822
1.557265E-6	-42.307704
1.55731E-6	-42.240257
1.557355E-6	-42.224282
1.5574E-6	-42.211255
1.557445E-6	-42.225007
1.55749E-6	-42.23081
1.557535E-6	-42.251182
1.55758E-6	-42.389747
1.557625E-6	-42.632849
1.55767E-6	-42.834958
1.557715E-6	-42.890369
1.55776E-6	-42.904756
1.557805E-6	-42.901367
1.55785E-6	-42.895441
1.557895E-6	-42.894596
1.55794E-6	-42.874345
1.557985E-6	-42.747419
1.55803E-6	-42.500319
1.558075E-6	-42.309921
1.55812E-6	-42.243168
1.558165E-6	-42.235167
1.55821E-6	-42.24608
1.558255E-6	-42.25629
1.5583E-6	-42.25483
1.558345E-6	-42.27385
1.55839E-6	-42.408612
1.558435E-6	-42.653602
1.55848E-6	-42.852512
1.558525E-6	-42.921744
1.55857E-6	-42.928558
1.558615E-6	-42.922595
1.55866E-6	-42.913242
1.558705E-6	-42.917491
1.55875E-6	-42.913242
1.558795E-6	-42.78107
1.55884E-6	-42.53833
1.558885E-6	-42.363474
1.55893E-6	-42.297373
1.558975E-6	-42.290008
1.55902E-6	-42.304012
1.559065E-6	-42.308443
1.55911E-6	-42.299584
1.559155E-6	-42.322506
1.5592E-6	-42.456517
1.559245E-6	-42.709162
1.55929E-6	-42.894596
1.559335E-6	-42.954206
1.55938E-6	-42.953348
1.559425E-6	-42.957637
1.55947E-6	-42.971388
1.559515E-6	-42.979143
1.55956E-6	-42.965367
1.559605E-6	-42.831623
1.55965E-6	-42.602695
1.559695E-6	-42.421487
1.55974E-6	-42.363474
1.559785E-6	-42.36123
1.55983E-6	-42.377717
1.559875E-6	-42.376966
1.55992E-6	-42.369466
1.559965E-6	-42.399547
1.56001E-6	-42.536772
1.560055E-6	-42.773661
1.5601E-6	-42.951634
1.560145E-6	-43.0103
1.56019E-6	-43.003357
1.560235E-6	-43.003357
1.56028E-6	-43.013776
1.560325E-6	-43.023348
1.56037E-6	-43.009431
1.560415E-6	-42.887835
1.56046E-6	-42.663213
1.560505E-6	-42.488749
1.56055E-6	-42.446588
1.560595E-6	-42.4443
1.56064E-6	-42.450404
1.560685E-6	-42.445825
1.56073E-6	-42.443538
1.560775E-6	-42.473371
1.56082E-6	-42.597953
1.560865E-6	-42.819137
1.56091E-6	-42.988639
1.560955E-6	-43.032942
1.561E-6	-43.033815
1.561045E-6	-43.036436
1.56109E-6	-43.042557
1.561135E-6	-43.053071
1.56118E-6	-43.038184
1.561225E-6	-42.920043
1.56127E-6	-42.716462
1.561315E-6	-42.560984
1.56136E-6	-42.519671
1.561405E-6	-42.522775
1.56145E-6	-42.525105
1.561495E-6	-42.525882
1.56154E-6	-42.517344
1.561585E-6	-42.53911
1.56163E-6	-42.651202
1.561675E-6	-42.836627
1.56172E-6	-42.993828
1.561765E-6	-43.045183
1.56181E-6	-43.05044
1.561855E-6	-43.057459
1.5619E-6	-43.066248
1.561945E-6	-43.069769
1.56199E-6	-43.054825
1.562035E-6	-42.966226
1.56208E-6	-42.795926
1.562125E-6	-42.641617
1.56217E-6	-42.597163
1.562215E-6	-42.58612
1.56226E-6	-42.570393
1.562305E-6	-42.559418
1.56235E-6	-42.571963
1.562395E-6	-42.593216
1.56244E-6	-42.681696
1.562485E-6	-42.846653
1.56253E-6	-42.994693
1.562575E-6	-43.05044
1.56262E-6	-43.055703
1.562665E-6	-43.072412
1.56271E-6	-43.082998
1.562755E-6	-43.071531
1.5628E-6	-43.061851
1.562845E-6	-42.988639
1.56289E-6	-42.834124
1.562935E-6	-42.69137
1.56298E-6	-42.640021
1.563025E-6	-42.625688
1.56307E-6	-42.619333
1.563115E-6	-42.618539
1.56316E-6	-42.616952
1.563205E-6	-42.635238
1.56325E-6	-42.701875
1.563295E-6	-42.854188
1.56334E-6	-42.990368
1.563385E-6	-43.052194
1.56343E-6	-43.065369
1.563475E-6	-43.077702
1.56352E-6	-43.075056
1.563565E-6	-43.068009
1.56361E-6	-43.054825
1.563655E-6	-43.013776
1.5637E-6	-42.892059
1.563745E-6	-42.7597
1.56379E-6	-42.69864
1.563835E-6	-42.679281
1.56388E-6	-42.672043
1.563925E-6	-42.672043
1.56397E-6	-42.682501
1.564015E-6	-42.692985
1.56406E-6	-42.749055
1.564105E-6	-42.869297
1.56415E-6	-42.990368
1.564195E-6	-43.060094
1.56424E-6	-43.086532
1.564285E-6	-43.087416
1.56433E-6	-43.085648
1.564375E-6	-43.074174
1.56442E-6	-43.068009
1.564465E-6	-43.048687
1.56451E-6	-42.955921
1.564555E-6	-42.826624
1.5646E-6	-42.753965
1.564645E-6	-42.735988
1.56469E-6	-42.735173
1.564735E-6	-42.747419
1.56478E-6	-42.76052
1.564825E-6	-42.771194
1.56487E-6	-42.799234
1.564915E-6	-42.904756
1.56496E-6	-43.022477
1.565005E-6	-43.098039
1.56505E-6	-43.126494
1.565095E-6	-43.140792
1.56514E-6	-43.13185
1.565185E-6	-43.129172
1.56523E-6	-43.135425
1.565275E-6	-43.123819
1.56532E-6	-43.05044
1.565365E-6	-42.940508
1.56541E-6	-42.862575
1.565455E-6	-42.841637
1.5655E-6	-42.856702
1.565545E-6	-42.865935
1.56559E-6	-42.877713
1.565635E-6	-42.880241
1.56568E-6	-42.891214
1.565725E-6	-42.973972
1.56577E-6	-43.095381
1.565815E-6	-43.182162
1.56586E-6	-43.195738
1.565905E-6	-43.205721
1.56595E-6	-43.199366
1.565995E-6	-43.197552
1.56604E-6	-43.203904
1.566085E-6	-43.199366
1.56613E-6	-43.149752
1.566175E-6	-43.040807
1.56622E-6	-42.969667
1.566265E-6	-42.94992
1.56631E-6	-42.958495
1.566355E-6	-42.97828
1.5664E-6	-42.990368
1.566445E-6	-42.988639
1.56649E-6	-42.992963
1.566535E-6	-43.054825
1.56658E-6	-43.164127
1.566625E-6	-43.244966
1.56667E-6	-43.275327
1.566715E-6	-43.27625
1.56676E-6	-43.273481
1.566805E-6	-43.28087
1.56685E-6	-43.287346
1.566895E-6	-43.294758
1.56694E-6	-43.25874
1.566985E-6	-43.168629
1.56703E-6	-43.101586
1.567075E-6	-43.090954
1.56712E-6	-43.112243
1.567165E-6	-43.132744
1.56721E-6	-43.14527
1.567255E-6	-43.149752
1.5673E-6	-43.179452
1.567345E-6	-43.242217
1.56739E-6	-43.348883
1.567435E-6	-43.439018
1.56748E-6	-43.483344
1.567525E-6	-43.511523
1.56757E-6	-43.534002
1.567615E-6	-43.572388
1.56766E-6	-43.630109
1.567705E-6	-43.660268
1.56775E-6	-43.672391
1.567795E-6	-43.646168
1.56784E-6	-43.628106
1.567885E-6	-43.668346
1.56793E-6	-43.732491
1.567975E-6	-43.802807
1.56802E-6	-43.872161
1.568065E-6	-43.949105
1.56811E-6	-44.038429
1.568155E-6	-44.165745
1.5682E-6	-44.330913
1.568245E-6	-44.501388
1.56829E-6	-44.634416
1.568335E-6	-44.753443
1.56838E-6	-44.87983
1.568425E-6	-45.011383
1.56847E-6	-45.161275
1.568515E-6	-45.307673
1.56856E-6	-45.439378
1.568605E-6	-45.529971
1.56865E-6	-45.649524
1.568695E-6	-45.793842
1.56874E-6	-45.985995
1.568785E-6	-46.167233
1.56883E-6	-46.348866
1.568875E-6	-46.540385
1.56892E-6	-46.736641
1.568965E-6	-46.968039
1.56901E-6	-47.244583
1.569055E-6	-47.498241
1.5691E-6	-47.731424
1.569145E-6	-47.961515
1.56919E-6	-48.187282
1.569235E-6	-48.401322
1.56928E-6	-48.639139
1.569325E-6	-48.860566
1.56937E-6	-49.076303
1.569415E-6	-49.251836
1.56946E-6	-49.430951
1.569505E-6	-49.645703
1.56955E-6	-49.863203
1.569595E-6	-50.074023
1.56964E-6	-50.290955
1.569685E-6	-50.501223
1.56973E-6	-50.734003
1.569775E-6	-50.95555
1.56982E-6	-51.208468
1.569865E-6	-51.464235
1.56991E-6	-51.684501
1.569955E-6	-51.903056
1.57E-6	-52.077484
