Wavelength (nm)	Power (dBm)
1.525E-6	-91.520574
1.525045E-6	-83.718155
1.52509E-6	-98.091083
1.525135E-6	-120
1.52518E-6	-89.779843
1.525225E-6	-92.66883
1.52527E-6	-95.556429
1.525315E-6	-92.04885
1.52536E-6	-120
1.525405E-6	-88.894103
1.52545E-6	-120
1.525495E-6	-102.333641
1.52554E-6	-120
1.525585E-6	-96.850799
1.52563E-6	-88.422411
1.525675E-6	-120
1.52572E-6	-91.856858
1.525765E-6	-88.887375
1.52581E-6	-89.362914
1.525855E-6	-90.441199
1.5259E-6	-120
1.525945E-6	-93.035562
1.52599E-6	-120
1.526035E-6	-88.551146
1.52608E-6	-89.465374
1.526125E-6	-102.651202
1.52617E-6	-107.770236
1.526215E-6	-88.395315
1.52626E-6	-120
1.526305E-6	-89.629721
1.52635E-6	-88.44057
1.526395E-6	-87.87546
1.52644E-6	-88.725712
1.526485E-6	-87.654827
1.52653E-6	-90.401957
1.526575E-6	-88.566729
1.52662E-6	-85.752817
1.526665E-6	-88.667805
1.52671E-6	-89.808837
1.526755E-6	-90.155177
1.5268E-6	-92.356744
1.526845E-6	-120
1.52689E-6	-93.086532
1.526935E-6	-120
1.52698E-6	-98.01893
1.527025E-6	-84.681381
1.52707E-6	-88.745187
1.527115E-6	-89.446217
1.52716E-6	-89.003194
1.527205E-6	-93.712025
1.52725E-6	-88.181564
1.527295E-6	-91.062937
1.52734E-6	-85.868679
1.527385E-6	-87.337683
1.52743E-6	-86.603498
1.527475E-6	-87.657359
1.52752E-6	-91.779628
1.527565E-6	-98.982529
1.52761E-6	-120
1.527655E-6	-120
1.5277E-6	-90.150678
1.527745E-6	-97.822529
1.52779E-6	-96.172627
1.527835E-6	-120
1.52788E-6	-89.35542
1.527925E-6	-89.065783
1.52797E-6	-87.015836
1.528015E-6	-89.527251
1.52806E-6	-86.561977
1.528105E-6	-87.366007
1.52815E-6	-86.483969
1.528195E-6	-85.509847
1.52824E-6	-89.465374
1.528285E-6	-92.589272
1.52833E-6	-120
1.528375E-6	-120
1.52842E-6	-94.728859
1.528465E-6	-91.813783
1.52851E-6	-96.190655
1.528555E-6	-88.917733
1.5286E-6	-93.199366
1.528645E-6	-86.278247
1.52869E-6	-86.003263
1.528735E-6	-84.336804
1.52878E-6	-91.700533
1.528825E-6	-85.965363
1.52887E-6	-89.139963
1.528915E-6	-86.418747
1.52896E-6	-86.701955
1.529005E-6	-85.065419
1.52905E-6	-88.461851
1.529095E-6	-88.924509
1.52914E-6	-102.643213
1.529185E-6	-98.22175
1.52923E-6	-89.566377
1.529275E-6	-120
1.52932E-6	-88.817353
1.529365E-6	-88.551146
1.52941E-6	-94.337983
1.529455E-6	-85.982549
1.5295E-6	-85.575202
1.529545E-6	-84.197595
1.52959E-6	-85.247648
1.529635E-6	-84.244658
1.52968E-6	-85.230235
1.529725E-6	-87.015836
1.52977E-6	-84.047243
1.529815E-6	-86.726411
1.52986E-6	-90.922663
1.529905E-6	-91.93142
1.52995E-6	-120
1.529995E-6	-90.189519
1.53004E-6	-102.316579
1.530085E-6	-120
1.53013E-6	-120
1.530175E-6	-120
1.53022E-6	-87.316561
1.530265E-6	-84.550642
1.53031E-6	-85.73001
1.530355E-6	-84.570502
1.5304E-6	-85.865326
1.530445E-6	-85.43634
1.53049E-6	-85.346171
1.530535E-6	-87.435228
1.53058E-6	-86.753061
1.530625E-6	-93.796557
1.53067E-6	-120
1.530715E-6	-120
1.53076E-6	-93.862639
1.530805E-6	-120
1.53085E-6	-120
1.530895E-6	-90.645935
1.53094E-6	-120
1.530985E-6	-90.845474
1.53103E-6	-86.432095
1.531075E-6	-85.217222
1.53112E-6	-84.78339
1.531165E-6	-85.001755
1.53121E-6	-85.820304
1.531255E-6	-85.367044
1.5313E-6	-85.295895
1.531345E-6	-85.975667
1.53139E-6	-88.282735
1.531435E-6	-90.190427
1.53148E-6	-89.30702
1.531525E-6	-120
1.53157E-6	-120
1.531615E-6	-120
1.53166E-6	-120
1.531705E-6	-86.857113
1.53175E-6	-90.282604
1.531795E-6	-87.870138
1.53184E-6	-85.057062
1.531885E-6	-84.645793
1.53193E-6	-87.026773
1.531975E-6	-83.347944
1.53202E-6	-85.485206
1.532065E-6	-85.26513
1.53211E-6	-84.629369
1.532155E-6	-84.921441
1.5322E-6	-86.629403
1.532245E-6	-120
1.53229E-6	-120
1.532335E-6	-120
1.53238E-6	-120
1.532425E-6	-94.730149
1.53247E-6	-120
1.532515E-6	-97.662426
1.53256E-6	-88.362425
1.532605E-6	-85.808707
1.53265E-6	-87.999707
1.532695E-6	-85.154155
1.53274E-6	-85.465288
1.532785E-6	-83.667336
1.53283E-6	-86.515004
1.532875E-6	-86.522798
1.53292E-6	-87.456937
1.532965E-6	-86.06074
1.53301E-6	-120
1.533055E-6	-89.779843
1.5331E-6	-89.50782
1.533145E-6	-120
1.53319E-6	-85.984272
1.533235E-6	-120
1.53328E-6	-92.025247
1.533325E-6	-89.097419
1.53337E-6	-85.101821
1.533415E-6	-84.921441
1.53346E-6	-85.148467
1.533505E-6	-84.063817
1.53355E-6	-85.225893
1.533595E-6	-87.4958
1.53364E-6	-87.13319
1.533685E-6	-86.390281
1.53373E-6	-89.404366
1.533775E-6	-90.028321
1.53382E-6	-92.124687
1.533865E-6	-88.92112
1.53391E-6	-91.711468
1.533955E-6	-91.718559
1.534E-6	-120
1.534045E-6	-91.122702
1.53409E-6	-92.276049
1.534135E-6	-87.011469
1.53418E-6	-85.867002
1.534225E-6	-90.897492
1.53427E-6	-85.270973
1.534315E-6	-88.057633
1.53436E-6	-84.422523
1.534405E-6	-84.497716
1.53445E-6	-90.691019
1.534495E-6	-86.643415
1.53454E-6	-87.572102
1.534585E-6	-87.994231
1.53463E-6	-120
1.534675E-6	-120
1.53472E-6	-100.271032
1.534765E-6	-120
1.53481E-6	-90.481284
1.534855E-6	-89.694003
1.5349E-6	-90.659057
1.534945E-6	-87.562181
1.53499E-6	-88.236193
1.535035E-6	-87.710866
1.53508E-6	-86.38461
1.535125E-6	-92.104193
1.53517E-6	-85.192746
1.535215E-6	-85.927791
1.53526E-6	-87.244583
1.535305E-6	-91.900365
1.53535E-6	-120
1.535395E-6	-120
1.53544E-6	-89.796387
1.535485E-6	-120
1.53553E-6	-120
1.535575E-6	-89.943906
1.53562E-6	-120
1.535665E-6	-90.03007
1.53571E-6	-89.871628
1.535755E-6	-91.147519
1.5358E-6	-87.599502
1.535845E-6	-90.639892
1.53589E-6	-86.062494
1.535935E-6	-87.739159
1.53598E-6	-88.06319
1.536025E-6	-89.792245
1.53607E-6	-93.318005
1.536115E-6	-91.083511
1.53616E-6	-111.301232
1.536205E-6	-93.367704
1.53625E-6	-120
1.536295E-6	-92.28633
1.53634E-6	-120
1.536385E-6	-120
1.53643E-6	-88.884015
1.536475E-6	-88.897471
1.53652E-6	-88.236193
1.536565E-6	-87.670039
1.53661E-6	-85.802094
1.536655E-6	-87.685304
1.5367E-6	-96.942188
1.536745E-6	-88.317973
1.53679E-6	-86.763355
1.536835E-6	-88.116341
1.53688E-6	-90.110399
1.536925E-6	-120
1.53697E-6	-120
1.537015E-6	-99.838026
1.53706E-6	-120
1.537105E-6	-120
1.53715E-6	-98.610661
1.537195E-6	-97.077439
1.53724E-6	-95.453076
1.537285E-6	-91.297132
1.53733E-6	-89.50782
1.537375E-6	-88.495506
1.53742E-6	-91.641826
1.537465E-6	-84.92279
1.53751E-6	-89.076303
1.537555E-6	-92.050939
1.5376E-6	-88.147412
1.537645E-6	-90.259952
1.53769E-6	-92.922595
1.537735E-6	-92.246809
1.53778E-6	-96.800616
1.537825E-6	-94.692882
1.53787E-6	-120
1.537915E-6	-120
1.53796E-6	-89.034376
1.538005E-6	-120
1.53805E-6	-120
1.538095E-6	-89.104481
1.53814E-6	-86.247023
1.538185E-6	-89.211808
1.53823E-6	-87.838341
1.538275E-6	-92.432878
1.53832E-6	-87.13319
1.538365E-6	-88.800846
1.53841E-6	-89.197344
1.538455E-6	-90.513426
1.5385E-6	-120
1.538545E-6	-87.672579
1.53859E-6	-120
1.538635E-6	-120
1.53868E-6	-120
1.538725E-6	-94.721124
1.53877E-6	-101.669805
1.538815E-6	-120
1.53886E-6	-91.12833
1.538905E-6	-88.827287
1.53895E-6	-86.79646
1.538995E-6	-86.957249
1.53904E-6	-97.883456
1.539085E-6	-88.934691
1.53913E-6	-90.784696
1.539175E-6	-89.93534
1.53922E-6	-89.215432
1.539265E-6	-96.378947
1.53931E-6	-120
1.539355E-6	-120
1.5394E-6	-120
1.539445E-6	-120
1.53949E-6	-120
1.539535E-6	-120
1.53958E-6	-120
1.539625E-6	-120
1.53967E-6	-86.639407
1.539715E-6	-88.010681
1.53976E-6	-85.176982
1.539805E-6	-88.091083
1.53985E-6	-88.982529
1.539895E-6	-90.487596
1.53994E-6	-89.19013
1.539985E-6	-95.121549
1.54003E-6	-90.952845
1.540075E-6	-97.62205
1.54012E-6	-120
1.540165E-6	-90.320778
1.54021E-6	-92.568039
1.540255E-6	-120
1.5403E-6	-90.216825
1.540345E-6	-92.87182
1.54039E-6	-90.876185
1.540435E-6	-97.723704
1.54048E-6	-93.098926
1.540525E-6	-86.165437
1.54057E-6	-89.558524
1.540615E-6	-88.082696
1.54066E-6	-89.037854
1.540705E-6	-88.164455
1.54075E-6	-89.586073
1.540795E-6	-90.381994
1.54084E-6	-90.256726
1.540885E-6	-94.575481
1.54093E-6	-92.66562
1.540975E-6	-90.247061
1.54102E-6	-103.272558
1.541065E-6	-94.85054
1.54111E-6	-120
1.541155E-6	-96.017127
1.5412E-6	-120
1.541245E-6	-87.991495
1.54129E-6	-86.920763
1.541335E-6	-86.763355
1.54138E-6	-88.725712
1.541425E-6	-85.765903
1.54147E-6	-87.028963
1.541515E-6	-86.895191
1.54156E-6	-89.377942
1.541605E-6	-88.443604
1.54165E-6	-93.665315
1.541695E-6	-120
1.54174E-6	-105.231684
1.541785E-6	-95.536182
1.54183E-6	-120
1.541875E-6	-95.247648
1.54192E-6	-87.510464
1.541965E-6	-120
1.54201E-6	-93.018995
1.542055E-6	-92.981731
1.5421E-6	-86.124322
1.542145E-6	-86.948637
1.54219E-6	-91.099145
1.542235E-6	-86.893067
1.54228E-6	-85.062632
1.542325E-6	-100.15968
1.54237E-6	-90.15968
1.542415E-6	-88.648673
1.54246E-6	-88.632794
1.542505E-6	-94.346245
1.54255E-6	-98.239087
1.542595E-6	-89.262816
1.54264E-6	-120
1.542685E-6	-120
1.54273E-6	-96.667543
1.542775E-6	-98.87395
1.54282E-6	-87.880789
1.542865E-6	-88.434508
1.54291E-6	-85.489815
1.542955E-6	-85.36555
1.543E-6	-87.483618
1.543045E-6	-86.708056
1.54309E-6	-89.649707
1.543135E-6	-86.369524
1.54318E-6	-88.486301
1.543225E-6	-120
1.54327E-6	-91.124952
1.543315E-6	-95.807053
1.54336E-6	-98.057633
1.543405E-6	-99.788107
1.54345E-6	-89.362914
1.543495E-6	-120
1.54354E-6	-120
1.543585E-6	-120
1.54363E-6	-120
1.543675E-6	-91.593921
1.54372E-6	-85.895602
1.543765E-6	-87.217038
1.54381E-6	-83.973975
1.543855E-6	-88.604357
1.5439E-6	-84.384216
1.543945E-6	-88.347557
1.54399E-6	-86.428277
1.544035E-6	-95.294425
1.54408E-6	-94.127382
1.544125E-6	-120
1.54417E-6	-120
1.544215E-6	-90.382468
1.54426E-6	-104.788619
1.544305E-6	-97.557229
1.54435E-6	-120
1.544395E-6	-91.069043
1.54444E-6	-89.366666
1.544485E-6	-85.418156
1.54453E-6	-87.428016
1.544575E-6	-85.506759
1.54462E-6	-120
1.544665E-6	-89.54677
1.54471E-6	-86.507225
1.544755E-6	-87.454519
1.5448E-6	-87.437635
1.544845E-6	-82.130357
1.54489E-6	-103.792395
1.544935E-6	-93.347944
1.54498E-6	-120
1.545025E-6	-120
1.54507E-6	-86.890944
1.545115E-6	-78.850556
1.54516E-6	-61.859523
1.545205E-6	-55.431787
1.54525E-6	-52.964507
1.545295E-6	-52.31732
1.54534E-6	-52.239529
1.545385E-6	-52.206922
1.54543E-6	-52.206922
1.545475E-6	-52.50805
1.54552E-6	-54.219341
1.545565E-6	-58.616973
1.54561E-6	-66.763355
1.545655E-6	-75.394028
1.5457E-6	-82.258481
1.545745E-6	-85.777385
1.54579E-6	-120
1.545835E-6	-88.195874
1.54588E-6	-120
1.545925E-6	-87.931741
1.54597E-6	-87.657359
1.546015E-6	-88.620133
1.54606E-6	-90.268259
1.546105E-6	-86.876111
1.54615E-6	-87.56962
1.546195E-6	-88.024438
1.54624E-6	-87.947956
1.546285E-6	-87.473897
1.54633E-6	-91.328862
1.546375E-6	-88.359447
1.54642E-6	-94.29107
1.546465E-6	-93.884891
1.54651E-6	-90.863451
1.546555E-6	-94.753443
1.5466E-6	-97.90485
1.546645E-6	-120
1.54669E-6	-98.392314
1.546735E-6	-120
1.54678E-6	-92.82829
1.546825E-6	-88.178708
1.54687E-6	-84.776862
1.546915E-6	-86.677636
1.54696E-6	-85.188441
1.547005E-6	-88.4649
1.54705E-6	-86.326441
1.547095E-6	-86.888822
1.54714E-6	-87.567139
1.547185E-6	-91.237244
1.54723E-6	-87.791078
1.547275E-6	-88.784402
1.54732E-6	-93.177646
1.547365E-6	-120
1.54741E-6	-103.157832
1.547455E-6	-91.069043
1.5475E-6	-96.307841
1.547545E-6	-90.432075
1.54759E-6	-88.557372
1.547635E-6	-86.92504
1.54768E-6	-86.395959
1.547725E-6	-91.69668
1.54777E-6	-85.861975
1.547815E-6	-87.662426
1.54786E-6	-84.507514
1.547905E-6	-86.944337
1.54795E-6	-89.918258
1.547995E-6	-88.645493
1.54804E-6	-120
1.548085E-6	-93.130064
1.54813E-6	-91.865525
1.548175E-6	-88.85389
1.54822E-6	-97.387371
1.548265E-6	-120
1.54831E-6	-103.775787
1.548355E-6	-89.273825
1.5484E-6	-88.201611
1.548445E-6	-86.03452
1.54849E-6	-86.293019
1.548535E-6	-85.162701
1.54858E-6	-85.883803
1.548625E-6	-85.878756
1.54867E-6	-85.480601
1.548715E-6	-89.742846
1.54876E-6	-89.430951
1.548805E-6	-89.208188
1.54885E-6	-120
1.548895E-6	-91.55958
1.54894E-6	-120
1.548985E-6	-91.453297
1.54903E-6	-83.517376
1.549075E-6	-90.523703
1.54912E-6	-90.663103
1.549165E-6	-87.399286
1.54921E-6	-91.128893
1.549255E-6	-87.356545
1.5493E-6	-86.827727
1.549345E-6	-86.838199
1.54939E-6	-85.929492
1.549435E-6	-87.256112
1.54948E-6	-87.659892
1.549525E-6	-87.263044
1.54957E-6	-86.33577
1.549615E-6	-92.358239
1.54966E-6	-91.118767
1.549705E-6	-120
1.54975E-6	-120
1.549795E-6	-89.434763
1.54984E-6	-90.953926
1.549885E-6	-84.350973
1.54993E-6	-68.712777
1.549975E-6	-57.670039
1.55002E-6	-53.759243
1.550065E-6	-52.36123
1.55011E-6	-52.086603
1.550155E-6	-52.040505
1.5502E-6	-52.050939
1.550245E-6	-52.097148
1.55029E-6	-52.758061
1.550335E-6	-55.395532
1.55038E-6	-61.117643
1.550425E-6	-70.391013
1.55047E-6	-78.474059
1.550515E-6	-86.695862
1.55056E-6	-86.736641
1.550605E-6	-120
1.55065E-6	-93.337629
1.550695E-6	-95.914209
1.55074E-6	-89.905491
1.550785E-6	-95.037625
1.55083E-6	-90.86504
1.550875E-6	-88.51089
1.55092E-6	-84.61175
1.550965E-6	-85.915904
1.55101E-6	-87.110804
1.551055E-6	-91.294205
1.5511E-6	-85.181276
1.551145E-6	-85.73001
1.55119E-6	-90.337644
1.551235E-6	-90.373466
1.55128E-6	-91.555228
1.551325E-6	-120
1.55137E-6	-91.294205
1.551415E-6	-92.733543
1.55146E-6	-120
1.551505E-6	-88.814046
1.55155E-6	-82.451168
1.551595E-6	-89.147094
1.55164E-6	-86.863437
1.551685E-6	-86.172627
1.55173E-6	-87.164726
1.551775E-6	-87.554755
1.55182E-6	-90.178645
1.551865E-6	-89.480761
1.55191E-6	-88.8706
1.551955E-6	-86.280091
1.552E-6	-120
1.552045E-6	-120
1.55209E-6	-87.607005
1.552135E-6	-93.851028
1.55218E-6	-120
1.552225E-6	-120
1.55227E-6	-100.840728
1.552315E-6	-120
1.55236E-6	-88.560489
1.552405E-6	-90.550734
1.55245E-6	-85.237482
1.552495E-6	-92.006595
1.55254E-6	-86.683703
1.552585E-6	-87.452103
1.55263E-6	-86.540385
1.552675E-6	-87.886124
1.55272E-6	-85.932895
1.552765E-6	-91.467278
1.55281E-6	-92.022479
1.552855E-6	-91.082396
1.5529E-6	-120
1.552945E-6	-120
1.55299E-6	-120
1.553035E-6	-90.778457
1.55308E-6	-120
1.553125E-6	-93.586251
1.55317E-6	-93.1078
1.553215E-6	-87.710866
1.55326E-6	-91.149216
1.553305E-6	-86.356366
1.55335E-6	-85.845258
1.553395E-6	-86.167233
1.55344E-6	-86.097716
1.553485E-6	-120
1.55353E-6	-86.27088
1.553575E-6	-94.018664
1.55362E-6	-92.577463
1.553665E-6	-90.198602
1.55371E-6	-104.468455
1.553755E-6	-120
1.5538E-6	-120
1.553845E-6	-120
1.55389E-6	-92.410125
1.553935E-6	-90.504636
1.55398E-6	-87.092978
1.554025E-6	-86.595559
1.55407E-6	-87.986029
1.554115E-6	-91.871535
1.55416E-6	-89.325572
1.554205E-6	-85.358086
1.55425E-6	-86.285627
1.554295E-6	-85.684754
1.55434E-6	-86.305986
1.554385E-6	-86.922901
1.55443E-6	-120
1.554475E-6	-93.798639
1.55452E-6	-97.077439
1.554565E-6	-94.212462
1.55461E-6	-101.728893
1.554655E-6	-91.30299
1.5547E-6	-120
1.554745E-6	-92.942218
1.55479E-6	-88.241984
1.554835E-6	-87.449688
1.55488E-6	-90.421055
1.554925E-6	-87.176045
1.55497E-6	-86.422557
1.555015E-6	-91.165089
1.55506E-6	-86.667543
1.555105E-6	-84.618034
1.55515E-6	-86.528652
1.555195E-6	-86.922901
1.55524E-6	-88.894103
1.555285E-6	-92.522775
1.55533E-6	-98.613816
1.555375E-6	-100.458057
1.55542E-6	-89.931063
1.555465E-6	-90.239253
1.55551E-6	-120
1.555555E-6	-91.204454
1.5556E-6	-90.963133
1.555645E-6	-87.572102
1.55569E-6	-84.211317
1.555735E-6	-85.982549
1.55578E-6	-86.0206
1.555825E-6	-87.89414
1.55587E-6	-87.283907
1.555915E-6	-87.705742
1.55596E-6	-86.873996
1.556005E-6	-90.24063
1.55605E-6	-88.383326
1.556095E-6	-120
1.55614E-6	-102.006595
1.556185E-6	-120
1.55623E-6	-88.645493
1.556275E-6	-93.439977
1.55632E-6	-89.427144
1.556365E-6	-99.821323
1.55641E-6	-87.432823
1.556455E-6	-90.622314
1.5565E-6	-98.667805
1.556545E-6	-84.834646
1.55659E-6	-87.659892
1.556635E-6	-85.780672
1.55668E-6	-85.171264
1.556725E-6	-85.919297
1.55677E-6	-86.683703
1.556815E-6	-94.596705
1.55686E-6	-89.677843
1.556905E-6	-91.923973
1.55695E-6	-120
1.556995E-6	-90.228253
1.55704E-6	-120
1.557085E-6	-94.470885
1.55713E-6	-120
1.557175E-6	-88.029953
1.55722E-6	-88.365404
1.557265E-6	-87.035542
1.55731E-6	-86.530605
1.557355E-6	-85.900669
1.5574E-6	-84.748256
1.557445E-6	-85.86365
1.55749E-6	-85.798792
1.557535E-6	-88.282735
1.55758E-6	-88.467951
1.557625E-6	-87.527635
1.55767E-6	-105.471407
1.557715E-6	-120
1.55776E-6	-120
1.557805E-6	-120
1.55785E-6	-90.595333
1.557895E-6	-120
1.55794E-6	-97.687854
1.557985E-6	-92.357491
1.55803E-6	-87.587026
1.558075E-6	-84.983931
1.55812E-6	-84.08824
1.558165E-6	-89.111554
1.55821E-6	-85.52222
1.558255E-6	-87.146678
1.5583E-6	-84.825402
1.558345E-6	-86.414941
1.55839E-6	-88.002448
1.558435E-6	-90.875122
1.55848E-6	-93.168629
1.558525E-6	-102.452695
1.55857E-6	-87.423214
1.558615E-6	-94.671183
1.55866E-6	-120
1.558705E-6	-120
1.55875E-6	-94.455108
1.558795E-6	-91.326504
1.55884E-6	-88.480176
1.558885E-6	-85.890541
1.55893E-6	-86.556077
1.558975E-6	-85.572068
1.55902E-6	-87.557229
1.559065E-6	-89.991323
1.55911E-6	-92.329184
1.559155E-6	-92.169544
1.5592E-6	-85.726762
1.559245E-6	-120
1.55929E-6	-90.90658
1.559335E-6	-93.055703
1.55938E-6	-90.291884
1.559425E-6	-92.814153
1.55947E-6	-120
1.559515E-6	-89.593977
1.55956E-6	-120
1.559605E-6	-90.049794
1.55965E-6	-90.122444
1.559695E-6	-85.583049
1.55974E-6	-84.992148
1.559785E-6	-92.507276
1.55983E-6	-88.224635
1.559875E-6	-86.49752
1.55992E-6	-86.172627
1.559965E-6	-87.746907
1.56001E-6	-86.491707
1.560055E-6	-87.589518
1.5601E-6	-92.146702
1.560145E-6	-94.584208
1.56019E-6	-95.275361
1.560235E-6	-94.180503
1.56028E-6	-92.337359
1.560325E-6	-90.419142
1.56037E-6	-96.948637
1.560415E-6	-113.600158
1.56046E-6	-88.392314
1.560505E-6	-86.074789
1.56055E-6	-88.716007
1.560595E-6	-85.77082
1.56064E-6	-87.718564
1.560685E-6	-85.764265
1.56073E-6	-86.011923
1.560775E-6	-85.15985
1.56082E-6	-86.996219
1.560865E-6	-93.347944
1.56091E-6	-88.093882
1.560955E-6	-93.504704
1.561E-6	-94.718549
1.561045E-6	-91.031432
1.56109E-6	-90.657036
1.561135E-6	-120
1.56118E-6	-120
1.561225E-6	-89.100949
1.56127E-6	-90.231459
1.561315E-6	-87.081873
1.56136E-6	-85.019653
1.561405E-6	-90.201786
1.56145E-6	-86.699923
1.561495E-6	-85.841923
1.56154E-6	-87.011469
1.561585E-6	-85.68154
1.56163E-6	-96.26904
1.561675E-6	-93.919021
1.56172E-6	-120
1.561765E-6	-120
1.56181E-6	-95.547072
1.561855E-6	-88.167302
1.5619E-6	-120
1.561945E-6	-120
1.56199E-6	-88.661419
1.562035E-6	-91.816421
1.56208E-6	-120
1.562125E-6	-88.735439
1.56217E-6	-89.496202
1.562215E-6	-86.33017
1.56226E-6	-89.480761
1.562305E-6	-88.722475
1.56235E-6	-87.619539
1.562395E-6	-86.322715
1.56244E-6	-87.649768
1.562485E-6	-86.649435
1.56253E-6	-89.986991
1.562575E-6	-120
1.56262E-6	-92.161679
1.562665E-6	-120
1.56271E-6	-120
1.562755E-6	-120
1.5628E-6	-90.290955
1.562845E-6	-90.140798
1.56289E-6	-92.244624
1.562935E-6	-89.34047
1.56298E-6	-88.150248
1.563025E-6	-87.10411
1.56307E-6	-88.738686
1.563115E-6	-87.532553
1.56316E-6	-88.548036
1.563205E-6	-88.664611
1.56325E-6	-88.043771
1.563295E-6	-87.880789
1.56334E-6	-90.195875
1.563385E-6	-120
1.56343E-6	-120
1.563475E-6	-92.589272
1.56352E-6	-120
1.563565E-6	-95.88212
1.56361E-6	-90.177288
1.563655E-6	-102.432118
1.5637E-6	-120
1.563745E-6	-86.552149
1.56379E-6	-88.356471
1.563835E-6	-90.187252
1.56388E-6	-88.585502
1.563925E-6	-89.637705
1.56397E-6	-94.260846
1.564015E-6	-87.775437
1.56406E-6	-85.700863
1.564105E-6	-88.569852
1.56415E-6	-91.206174
1.564195E-6	-120
1.56424E-6	-91.976368
1.564285E-6	-88.50473
1.56433E-6	-120
1.564375E-6	-95.097605
1.56442E-6	-120
1.564465E-6	-120
1.56451E-6	-93.836295
1.564555E-6	-88.738686
1.5646E-6	-87.311881
1.564645E-6	-87.498241
1.56469E-6	-88.474059
1.564735E-6	-89.480761
1.56478E-6	-89.986991
1.564825E-6	-88.582368
1.56487E-6	-87.20105
1.564915E-6	-88.951716
1.56496E-6	-86.978856
1.565005E-6	-99.377942
1.56505E-6	-90.314237
1.565095E-6	-89.901244
1.56514E-6	-120
1.565185E-6	-120
1.56523E-6	-120
1.565275E-6	-120
1.56532E-6	-89.469216
1.565365E-6	-91.633595
1.56541E-6	-92.432118
1.565455E-6	-89.104481
1.5655E-6	-86.623411
1.565545E-6	-93.539886
1.56559E-6	-88.344589
1.565635E-6	-96.691805
1.56568E-6	-91.950432
1.565725E-6	-92.138167
1.56577E-6	-120
1.565815E-6	-90.975076
1.56586E-6	-120
1.565905E-6	-120
1.56595E-6	-120
1.565995E-6	-98.771291
1.56604E-6	-96.90157
1.566085E-6	-94.532106
1.56613E-6	-92.757241
1.566175E-6	-91.707606
1.56622E-6	-120
1.566265E-6	-91.630433
1.56631E-6	-89.905491
1.566355E-6	-87.801536
1.5664E-6	-89.511699
1.566445E-6	-92.979143
1.56649E-6	-87.804155
1.566535E-6	-90.565055
1.56658E-6	-120
1.566625E-6	-120
1.56667E-6	-92.272384
1.566715E-6	-93.182162
1.56676E-6	-120
1.566805E-6	-98.880657
1.56685E-6	-92.395021
1.566895E-6	-120
1.56694E-6	-120
1.566985E-6	-90.982693
1.56703E-6	-86.726411
1.567075E-6	-93.464016
1.56712E-6	-94.837291
1.567165E-6	-93.329208
1.56721E-6	-88.576105
1.567255E-6	-88.452718
1.5673E-6	-120
1.567345E-6	-91.001248
1.56739E-6	-89.132843
1.567435E-6	-120
1.56748E-6	-120
1.567525E-6	-87.481185
1.56757E-6	-120
1.567615E-6	-97.859513
1.56766E-6	-106.800616
1.567705E-6	-91.806535
1.56775E-6	-91.763302
1.567795E-6	-100.143041
1.56784E-6	-90.418185
1.567885E-6	-88.709549
1.56793E-6	-90.884163
1.567975E-6	-95.587763
1.56802E-6	-91.132837
1.568065E-6	-91.723723
1.56811E-6	-91.60522
1.568155E-6	-89.821323
1.5682E-6	-87.330631
1.568245E-6	-93.383766
1.56829E-6	-90.804512
1.568335E-6	-96.201508
1.56838E-6	-99.215432
1.568425E-6	-120
1.56847E-6	-90.452752
1.568515E-6	-99.090369
1.56856E-6	-91.586405
1.568605E-6	-120
1.56865E-6	-120
1.568695E-6	-90.686947
1.56874E-6	-120
1.568785E-6	-89.978339
1.56883E-6	-120
1.568875E-6	-92.153114
1.56892E-6	-93.817427
1.568965E-6	-88.965384
1.56901E-6	-96.8867
1.569055E-6	-120
1.5691E-6	-92.786016
1.569145E-6	-90.291419
1.56919E-6	-120
1.569235E-6	-120
1.56928E-6	-87.6675
1.569325E-6	-100.184985
1.56937E-6	-120
1.569415E-6	-87.246886
1.56946E-6	-120
1.569505E-6	-92.92515
1.56955E-6	-120
1.569595E-6	-86.256183
1.56964E-6	-88.362425
1.569685E-6	-88.651856
1.56973E-6	-91.88291
1.569775E-6	-90.443603
1.56982E-6	-95.027938
1.569865E-6	-92.22066
1.56991E-6	-98.210231
1.569955E-6	-120
1.57E-6	-120
