Wavelength (nm)	Power (dBm)
1.525E-6	-62.536772
1.525045E-6	-62.541448
1.52509E-6	-63.149752
1.525135E-6	-65.377518
1.52518E-6	-69.570309
1.525225E-6	-73.990271
1.52527E-6	-76.8867
1.525315E-6	-76.623411
1.52536E-6	-76.716204
1.525405E-6	-76.829819
1.52545E-6	-73.450538
1.525495E-6	-67.009287
1.52554E-6	-63.377145
1.525585E-6	-61.766562
1.52563E-6	-61.303577
1.525675E-6	-61.11652
1.52572E-6	-60.940962
1.525765E-6	-60.758758
1.52581E-6	-60.669685
1.525855E-6	-61.03584
1.5259E-6	-62.883615
1.525945E-6	-66.844495
1.52599E-6	-71.694755
1.526035E-6	-75.598784
1.52608E-6	-76.360122
1.526125E-6	-76.258017
1.52617E-6	-76.441655
1.526215E-6	-73.856302
1.52626E-6	-66.861328
1.526305E-6	-62.521999
1.52635E-6	-60.502198
1.526395E-6	-59.880069
1.52644E-6	-59.673812
1.526485E-6	-59.582127
1.52653E-6	-59.503944
1.526575E-6	-59.461536
1.52662E-6	-59.677843
1.526665E-6	-61.003436
1.52671E-6	-64.387793
1.526755E-6	-69.689957
1.5268E-6	-74.222785
1.526845E-6	-76.414941
1.52689E-6	-75.893915
1.526935E-6	-76.390281
1.52698E-6	-74.983931
1.527025E-6	-68.121974
1.52707E-6	-62.170976
1.527115E-6	-59.613798
1.52716E-6	-58.693447
1.527205E-6	-58.474059
1.52725E-6	-58.383326
1.527295E-6	-58.297383
1.52734E-6	-58.250684
1.527385E-6	-58.374356
1.52743E-6	-59.303319
1.527475E-6	-62.084497
1.52752E-6	-67.142177
1.527565E-6	-72.446588
1.52761E-6	-75.489815
1.527655E-6	-76.38839
1.5277E-6	-76.232406
1.527745E-6	-75.446982
1.52779E-6	-69.442395
1.527835E-6	-62.367218
1.52788E-6	-59.111554
1.527925E-6	-57.796304
1.52797E-6	-57.483618
1.528015E-6	-57.430418
1.52806E-6	-57.387371
1.528105E-6	-57.321246
1.52815E-6	-57.368375
1.528195E-6	-58.01893
1.52824E-6	-60.044964
1.528285E-6	-64.522253
1.52833E-6	-70.061671
1.528375E-6	-74.784697
1.52842E-6	-75.967079
1.528465E-6	-75.99462
1.52851E-6	-75.76918
1.528555E-6	-71.079611
1.5286E-6	-63.343252
1.528645E-6	-59.115095
1.52869E-6	-57.219327
1.528735E-6	-56.763355
1.52878E-6	-56.683703
1.528825E-6	-56.645421
1.52887E-6	-56.605486
1.528915E-6	-56.601512
1.52896E-6	-56.976691
1.529005E-6	-58.601209
1.52905E-6	-62.130357
1.529095E-6	-68.096683
1.52914E-6	-73.039058
1.529185E-6	-74.971634
1.52923E-6	-74.337983
1.529275E-6	-70.929113
1.52932E-6	-63.851028
1.529365E-6	-48.658229
1.52941E-6	-37.759852
1.529455E-6	-33.994627
1.5295E-6	-32.433639
1.529545E-6	-32.037727
1.52959E-6	-31.907771
1.529635E-6	-31.820382
1.52968E-6	-31.819061
1.529725E-6	-32.638426
1.52977E-6	-35.564241
1.529815E-6	-41.871535
1.52986E-6	-53.005959
1.529905E-6	-61.392429
1.52995E-6	-68.22175
1.529995E-6	-72.007973
1.53004E-6	-73.966391
1.530085E-6	-74.280584
1.53013E-6	-67.007107
1.530175E-6	-60.585383
1.53022E-6	-57.260732
1.530265E-6	-56.069515
1.53031E-6	-55.772461
1.530355E-6	-55.697636
1.5304E-6	-55.628839
1.530445E-6	-55.633604
1.53049E-6	-55.683147
1.530535E-6	-56.399749
1.53058E-6	-58.635966
1.530625E-6	-63.032942
1.53067E-6	-69.419538
1.530715E-6	-73.693688
1.53076E-6	-74.384216
1.530805E-6	-73.21846
1.53085E-6	-68.972234
1.530895E-6	-59.657727
1.53094E-6	-42.713216
1.530985E-6	-35.979106
1.53103E-6	-33.14527
1.531075E-6	-32.20981
1.53112E-6	-32.007973
1.531165E-6	-31.928033
1.53121E-6	-31.863523
1.531255E-6	-32.023171
1.5313E-6	-33.289198
1.531345E-6	-37.16925
1.53139E-6	-44.824083
1.531435E-6	-56.659486
1.53148E-6	-63.52617
1.531525E-6	-69.295927
1.53157E-6	-72.814983
1.531615E-6	-74.194171
1.53166E-6	-72.723774
1.531705E-6	-64.388986
1.53175E-6	-59.175737
1.531795E-6	-56.407338
1.53184E-6	-55.589336
1.531885E-6	-55.413622
1.53193E-6	-55.459177
1.531975E-6	-55.468346
1.53202E-6	-55.442418
1.532065E-6	-55.608253
1.53211E-6	-56.607474
1.532155E-6	-59.438577
1.5322E-6	-64.364003
1.532245E-6	-70.119318
1.53229E-6	-74.077122
1.532335E-6	-74.213608
1.53238E-6	-72.395775
1.532425E-6	-66.8867
1.53247E-6	-54.907975
1.532515E-6	-40.31097
1.53256E-6	-34.87983
1.532605E-6	-32.575105
1.53265E-6	-31.966795
1.532695E-6	-31.879561
1.53274E-6	-31.874208
1.532785E-6	-31.933453
1.53283E-6	-32.274583
1.532875E-6	-34.072682
1.53292E-6	-38.554258
1.532965E-6	-47.490923
1.53301E-6	-58.754958
1.533055E-6	-65.309147
1.5331E-6	-70.238794
1.533145E-6	-73.380927
1.53319E-6	-74.17823
1.533235E-6	-71.778973
1.53328E-6	-63.678465
1.533325E-6	-58.999743
1.53337E-6	-56.683703
1.533415E-6	-56.03452
1.53346E-6	-55.938006
1.533505E-6	-55.963648
1.53355E-6	-56.06074
1.533595E-6	-56.17983
1.53364E-6	-56.449318
1.533685E-6	-57.718564
1.53373E-6	-60.63788
1.533775E-6	-66.201508
1.53382E-6	-71.631065
1.533865E-6	-74.55932
1.53391E-6	-74.32856
1.533955E-6	-71.922621
1.534E-6	-66.038007
1.534045E-6	-53.322669
1.53409E-6	-39.266483
1.534135E-6	-34.418917
1.53418E-6	-32.35077
1.534225E-6	-31.890286
1.53427E-6	-31.889615
1.534315E-6	-31.957242
1.53436E-6	-32.069084
1.534405E-6	-32.518895
1.53445E-6	-34.521023
1.534495E-6	-39.370422
1.53454E-6	-48.535619
1.534585E-6	-59.689957
1.53463E-6	-66.066003
1.534675E-6	-70.903905
1.53472E-6	-73.565473
1.534765E-6	-74.696722
1.53481E-6	-71.89633
1.534855E-6	-64.31329
1.5349E-6	-60.012177
1.534945E-6	-58.016179
1.53499E-6	-57.544873
1.535035E-6	-57.46662
1.53508E-6	-57.500682
1.535125E-6	-57.544873
1.53517E-6	-57.614521
1.535215E-6	-57.923656
1.53526E-6	-59.318141
1.535305E-6	-62.416181
1.53535E-6	-67.942545
1.535395E-6	-72.932822
1.53544E-6	-75.174122
1.535485E-6	-74.491604
1.53553E-6	-71.761347
1.535575E-6	-65.537736
1.53562E-6	-52.219935
1.535665E-6	-38.975663
1.53571E-6	-34.265482
1.535755E-6	-32.198268
1.5358E-6	-31.790764
1.535845E-6	-31.827653
1.53589E-6	-31.915189
1.535935E-6	-32.010043
1.53598E-6	-32.548471
1.536025E-6	-34.758636
1.53607E-6	-39.738755
1.536115E-6	-50.078885
1.53616E-6	-60.706833
1.536205E-6	-66.765416
1.53625E-6	-71.409218
1.536295E-6	-74.041732
1.53634E-6	-74.648325
1.536385E-6	-72.196107
1.53643E-6	-65.263671
1.536475E-6	-61.170772
1.53652E-6	-59.347939
1.536565E-6	-58.843895
1.53661E-6	-58.790972
1.536655E-6	-58.820662
1.5367E-6	-58.830604
1.536745E-6	-58.863908
1.53679E-6	-59.161392
1.536835E-6	-60.481284
1.53688E-6	-63.73865
1.536925E-6	-69.093893
1.53697E-6	-73.604139
1.537015E-6	-75.080783
1.53706E-6	-74.375882
1.537105E-6	-71.988022
1.53715E-6	-65.638374
1.537195E-6	-52.579823
1.53724E-6	-38.938091
1.537285E-6	-34.320331
1.53733E-6	-32.262867
1.537375E-6	-31.850868
1.53742E-6	-31.832948
1.537465E-6	-31.844223
1.53751E-6	-31.8923
1.537555E-6	-32.370215
1.5376E-6	-34.568014
1.537645E-6	-39.515582
1.53769E-6	-49.531148
1.537735E-6	-60.367317
1.53778E-6	-66.418747
1.537825E-6	-71.106983
1.53787E-6	-73.698774
1.537915E-6	-74.967542
1.53796E-6	-73.038184
1.538005E-6	-66.225116
1.53805E-6	-61.952474
1.538095E-6	-60.007389
1.53814E-6	-59.457701
1.538185E-6	-59.362914
1.53823E-6	-59.370422
1.538275E-6	-59.35542
1.53832E-6	-59.366666
1.538365E-6	-59.613798
1.53841E-6	-60.820221
1.538455E-6	-63.867926
1.5385E-6	-68.91435
1.538545E-6	-73.434227
1.53859E-6	-75.137112
1.538635E-6	-74.842586
1.53868E-6	-72.251912
1.538725E-6	-66.653452
1.53877E-6	-54.025242
1.538815E-6	-39.93534
1.53886E-6	-34.882503
1.538905E-6	-32.620127
1.53895E-6	-32.082392
1.538995E-6	-31.985277
1.53904E-6	-31.940915
1.539085E-6	-31.91249
1.53913E-6	-32.248995
1.539175E-6	-34.169146
1.53922E-6	-39.157813
1.539265E-6	-48.520147
1.53931E-6	-59.657727
1.539355E-6	-65.922693
1.5394E-6	-70.842837
1.539445E-6	-73.670368
1.53949E-6	-74.479405
1.539535E-6	-73.27625
1.53958E-6	-66.50334
1.539625E-6	-61.966795
1.53967E-6	-59.913998
1.539715E-6	-59.284862
1.53976E-6	-59.175737
1.539805E-6	-59.122186
1.53985E-6	-59.115095
1.539895E-6	-59.129288
1.53994E-6	-59.30702
1.539985E-6	-60.377728
1.54003E-6	-63.333884
1.540075E-6	-68.268137
1.54012E-6	-72.805858
1.540165E-6	-74.964817
1.54021E-6	-74.569258
1.540255E-6	-72.857541
1.5403E-6	-67.219327
1.540345E-6	-55.638374
1.54039E-6	-40.841255
1.540435E-6	-35.234582
1.54048E-6	-32.768728
1.540525E-6	-32.021095
1.54057E-6	-31.862856
1.540615E-6	-31.820382
1.54066E-6	-31.779628
1.540705E-6	-32.021787
1.54075E-6	-33.663296
1.540795E-6	-38.04931
1.54084E-6	-46.577748
1.540885E-6	-58.268137
1.54093E-6	-64.833324
1.540975E-6	-70.13273
1.54102E-6	-73.285494
1.541065E-6	-74.335625
1.54111E-6	-73.844708
1.541155E-6	-66.751005
1.5412E-6	-61.934809
1.541245E-6	-59.562449
1.54129E-6	-58.748442
1.541335E-6	-58.563608
1.54138E-6	-58.513973
1.541425E-6	-58.523237
1.54147E-6	-58.51089
1.541515E-6	-58.613816
1.54156E-6	-59.461536
1.541605E-6	-61.91384
1.54165E-6	-66.631402
1.541695E-6	-71.655793
1.54174E-6	-74.516106
1.541785E-6	-74.66355
1.54183E-6	-73.109577
1.541875E-6	-69.069287
1.54192E-6	-59.738755
1.541965E-6	-42.594794
1.54201E-6	-35.762628
1.542055E-6	-33.025091
1.5421E-6	-32.103488
1.542145E-6	-31.923297
1.54219E-6	-31.876884
1.542235E-6	-31.824346
1.54228E-6	-31.9382
1.542325E-6	-33.098926
1.54237E-6	-36.673596
1.542415E-6	-44.125135
1.54246E-6	-55.999804
1.542505E-6	-62.817475
1.54255E-6	-69.366666
1.542595E-6	-72.743333
1.54264E-6	-74.394956
1.542685E-6	-74.503838
1.54273E-6	-68.768019
1.542775E-6	-62.430598
1.54282E-6	-59.480761
1.542865E-6	-58.37137
1.54291E-6	-58.121974
1.542955E-6	-58.074325
1.543E-6	-58.077114
1.543045E-6	-58.04931
1.54309E-6	-58.088285
1.543135E-6	-58.651856
1.54318E-6	-60.615303
1.543225E-6	-64.805658
1.54327E-6	-70.097056
1.543315E-6	-74.036229
1.54336E-6	-75.080783
1.543405E-6	-73.887016
1.54345E-6	-70.421534
1.543495E-6	-62.97828
1.54354E-6	-47.557229
1.543585E-6	-37.187393
1.54363E-6	-33.604139
1.543675E-6	-32.205478
1.54372E-6	-31.943632
1.543765E-6	-31.88157
1.54381E-6	-31.841567
1.543855E-6	-31.88425
1.5439E-6	-32.54769
1.543945E-6	-35.179844
1.54399E-6	-40.990324
1.544035E-6	-51.699248
1.54408E-6	-61.88492
1.544125E-6	-67.617029
1.54417E-6	-71.705676
1.544215E-6	-74.102737
1.54426E-6	-74.296906
1.544305E-6	-70.72835
1.54435E-6	-63.554629
1.544395E-6	-59.854795
1.54444E-6	-58.204482
1.544485E-6	-57.798919
1.54453E-6	-57.765041
1.544575E-6	-57.767637
1.54462E-6	-57.770236
1.544665E-6	-57.75726
1.54471E-6	-58.107905
1.544755E-6	-59.645703
1.5448E-6	-62.921744
1.544845E-6	-68.434508
1.54489E-6	-73.19302
1.544935E-6	-74.846561
1.54498E-6	-74.342702
1.545025E-6	-71.754837
1.54507E-6	-65.731635
1.545115E-6	-52.153114
1.54516E-6	-39.037854
1.545205E-6	-34.475752
1.54525E-6	-32.476442
1.545295E-6	-31.982534
1.54534E-6	-31.90575
1.545385E-6	-31.867527
1.54543E-6	-31.876215
1.545475E-6	-32.219211
1.54552E-6	-34.068247
1.545565E-6	-38.78112
1.54561E-6	-47.744323
1.545655E-6	-59.139963
1.5457E-6	-65.389519
1.545745E-6	-70.231917
1.54579E-6	-73.519329
1.545835E-6	-74.600462
1.54588E-6	-72.923447
1.545925E-6	-65.728386
1.54597E-6	-60.94312
1.546015E-6	-58.560489
1.54606E-6	-57.772835
1.546105E-6	-57.644716
1.54615E-6	-57.627077
1.546195E-6	-57.594508
1.54624E-6	-57.599502
1.546285E-6	-57.762445
1.54633E-6	-58.680607
1.546375E-6	-61.085741
1.54642E-6	-65.81533
1.546465E-6	-71.061828
1.54651E-6	-74.312118
1.546555E-6	-74.591702
1.5466E-6	-73.28087
1.546645E-6	-69.248181
1.54669E-6	-59.867413
1.546735E-6	-43.230322
1.54678E-6	-35.968795
1.546825E-6	-33.156934
1.54687E-6	-32.173124
1.546915E-6	-31.974999
1.54696E-6	-31.913165
1.547005E-6	-31.92465
1.54705E-6	-32.050243
1.547095E-6	-33.045183
1.54714E-6	-36.248853
1.547185E-6	-42.924298
1.54723E-6	-54.835969
1.547275E-6	-62.120439
1.54732E-6	-68.807441
1.547365E-6	-72.324731
1.54741E-6	-73.948027
1.547455E-6	-74.267802
1.5475E-6	-69.457701
1.547545E-6	-62.688143
1.54759E-6	-59.262816
1.547635E-6	-57.891466
1.54768E-6	-57.582046
1.547725E-6	-57.547342
1.54777E-6	-57.567139
1.547815E-6	-57.582046
1.54786E-6	-57.649768
1.547905E-6	-58.096683
1.54795E-6	-59.665762
1.547995E-6	-63.381873
1.54804E-6	-69.023957
1.548085E-6	-73.293831
1.54813E-6	-74.710833
1.548175E-6	-74.051656
1.54822E-6	-71.598312
1.548265E-6	-65.114493
1.54831E-6	-51.14865
1.548355E-6	-38.758219
1.5484E-6	-34.353339
1.548445E-6	-32.42604
1.54849E-6	-31.971579
1.548535E-6	-31.889615
1.54858E-6	-31.877553
1.548625E-6	-31.90373
1.54867E-6	-32.253371
1.548715E-6	-34.187332
1.54876E-6	-39.136402
1.548805E-6	-48.218867
1.54885E-6	-59.37418
1.548895E-6	-65.600361
1.54894E-6	-70.448416
1.548985E-6	-73.601153
1.54903E-6	-74.197595
1.549075E-6	-72.676867
1.54912E-6	-65.715412
1.549165E-6	-60.83704
1.54921E-6	-58.53872
1.549255E-6	-57.754669
1.5493E-6	-57.597004
1.549345E-6	-57.577071
1.54939E-6	-57.584535
1.549435E-6	-57.574586
1.54948E-6	-57.698066
1.549525E-6	-58.598063
1.54957E-6	-60.88097
1.549615E-6	-65.551748
1.54966E-6	-70.964759
1.549705E-6	-74.560561
1.54975E-6	-74.70313
1.549795E-6	-73.438059
1.54984E-6	-69.476909
1.549885E-6	-61.251704
1.54993E-6	-43.990271
1.549975E-6	-36.293019
1.55002E-6	-33.173135
1.550065E-6	-32.137456
1.55011E-6	-31.934131
1.550155E-6	-31.920593
1.5502E-6	-31.90373
1.550245E-6	-31.93142
1.55029E-6	-32.597163
1.550335E-6	-35.318004
1.55038E-6	-41.351331
1.550425E-6	-52.418454
1.55047E-6	-62.170976
1.550515E-6	-67.744323
1.55056E-6	-71.906423
1.550605E-6	-73.983745
1.55065E-6	-74.415314
1.550695E-6	-70.500736
1.55074E-6	-63.348883
1.550785E-6	-59.665762
1.55083E-6	-57.996968
1.550875E-6	-57.587026
1.55092E-6	-57.530093
1.550965E-6	-57.500682
1.55101E-6	-57.498241
1.551055E-6	-57.520267
1.5511E-6	-57.785858
1.551145E-6	-59.168559
1.55119E-6	-62.240984
1.551235E-6	-67.833064
1.55128E-6	-72.481053
1.551325E-6	-74.779472
1.55137E-6	-74.644527
1.551415E-6	-72.619333
1.55146E-6	-67.070797
1.551505E-6	-55.992894
1.55155E-6	-41.05075
1.551595E-6	-35.322439
1.55164E-6	-32.869297
1.551685E-6	-32.180293
1.55173E-6	-32.053726
1.551775E-6	-32.039116
1.55182E-6	-31.987335
1.551865E-6	-32.169544
1.55191E-6	-33.441895
1.551955E-6	-37.21475
1.552E-6	-44.721124
1.552045E-6	-56.560009
1.55209E-6	-63.450538
1.552135E-6	-69.325572
1.55218E-6	-72.891214
1.552225E-6	-74.354523
1.55227E-6	-73.968556
1.552315E-6	-68.213108
1.55236E-6	-61.761998
1.552405E-6	-58.777841
1.55245E-6	-57.649768
1.552495E-6	-57.406451
1.55254E-6	-57.370745
1.552585E-6	-57.380238
1.55263E-6	-57.377863
1.552675E-6	-57.411234
1.55272E-6	-57.920965
1.552765E-6	-59.722428
1.55281E-6	-63.633116
1.552855E-6	-69.578184
1.5529E-6	-73.5635
1.552945E-6	-74.726279
1.55299E-6	-74.090468
1.553035E-6	-71.189008
1.55308E-6	-64.613006
1.553125E-6	-50.323584
1.55317E-6	-38.136088
1.553215E-6	-34.013189
1.55326E-6	-32.279718
1.553305E-6	-31.909119
1.55335E-6	-31.824346
1.553395E-6	-31.771131
1.55344E-6	-31.780936
1.553485E-6	-32.171692
1.55353E-6	-34.06271
1.553575E-6	-38.823973
1.55362E-6	-47.950665
1.553665E-6	-58.78112
1.55371E-6	-65.117314
1.553755E-6	-70.331546
1.5538E-6	-73.372422
1.553845E-6	-74.525945
1.55389E-6	-72.988639
1.553935E-6	-65.581478
1.55398E-6	-60.551227
1.554025E-6	-58.175853
1.55407E-6	-57.387371
1.554115E-6	-57.223908
1.55416E-6	-57.21475
1.554205E-6	-57.203331
1.55425E-6	-57.185121
1.554295E-6	-57.281584
1.55434E-6	-58.079904
1.554385E-6	-60.20816
1.55443E-6	-64.690323
1.554475E-6	-70.095723
1.55452E-6	-74.274769
1.554565E-6	-74.757337
1.55461E-6	-73.799681
1.554655E-6	-70.189066
1.5547E-6	-62.473371
1.554745E-6	-47.090754
1.55479E-6	-37.009287
1.554835E-6	-33.584267
1.55488E-6	-32.292216
1.554925E-6	-32.010043
1.55497E-6	-31.951793
1.555015E-6	-31.932775
1.55506E-6	-31.955879
1.555105E-6	-32.393514
1.55515E-6	-34.634416
1.555195E-6	-39.734667
1.55524E-6	-49.965395
1.555285E-6	-60.498299
1.55533E-6	-66.339508
1.555375E-6	-71.224559
1.55542E-6	-73.635121
1.555465E-6	-74.564286
1.55551E-6	-71.783555
1.555555E-6	-64.219341
1.5556E-6	-59.871628
1.555645E-6	-57.744323
1.55569E-6	-57.155693
1.555735E-6	-57.039933
1.55578E-6	-57.048729
1.555825E-6	-57.050931
1.55587E-6	-57.059749
1.555915E-6	-57.196493
1.55596E-6	-58.119156
1.556005E-6	-60.668165
1.55605E-6	-65.573635
1.556095E-6	-70.867161
1.55614E-6	-74.457532
1.556185E-6	-74.701848
1.55623E-6	-73.398938
1.556275E-6	-69.461536
1.55632E-6	-61.040253
1.556365E-6	-43.849974
1.55641E-6	-36.468535
1.556455E-6	-33.300326
1.5565E-6	-32.14599
1.556545E-6	-31.919917
1.55659E-6	-31.88157
1.556635E-6	-31.851533
1.55668E-6	-31.892971
1.556725E-6	-32.541448
1.55677E-6	-35.172693
1.556815E-6	-40.823895
1.55686E-6	-51.467278
1.556905E-6	-61.526124
1.55695E-6	-67.210179
1.556995E-6	-71.747037
1.55704E-6	-73.800723
1.557085E-6	-74.616777
1.55713E-6	-71.153745
1.557175E-6	-63.773716
1.55722E-6	-59.542859
1.557265E-6	-57.654827
1.55731E-6	-57.162466
1.557355E-6	-57.068585
1.5574E-6	-57.099654
1.557445E-6	-57.084092
1.55749E-6	-57.079656
1.557535E-6	-57.281584
1.55758E-6	-58.362425
1.557625E-6	-60.966929
1.55767E-6	-65.972229
1.557715E-6	-71.371533
1.55776E-6	-74.817493
1.557805E-6	-74.72499
1.55785E-6	-73.292904
1.557895E-6	-69.219058
1.55794E-6	-60.337644
1.557985E-6	-43.446694
1.55803E-6	-36.223296
1.558075E-6	-33.156035
1.55812E-6	-32.00246
1.558165E-6	-31.776357
1.55821E-6	-31.771131
1.558255E-6	-31.776357
1.5583E-6	-31.821042
1.558345E-6	-32.579036
1.55839E-6	-35.394028
1.558435E-6	-41.321202
1.55848E-6	-52.137456
1.558525E-6	-61.89902
1.55857E-6	-67.687854
1.558615E-6	-71.992142
1.55866E-6	-73.873221
1.558705E-6	-74.525945
1.55875E-6	-71.421852
1.558795E-6	-63.746875
1.55884E-6	-59.661743
1.558885E-6	-57.825161
1.55893E-6	-57.380238
1.558975E-6	-57.309543
1.55902E-6	-57.33298
1.559065E-6	-57.325936
1.55911E-6	-57.330631
1.559155E-6	-57.530093
1.5592E-6	-58.59492
1.559245E-6	-61.240132
1.55929E-6	-66.36388
1.559335E-6	-71.53601
1.55938E-6	-74.631891
1.559425E-6	-74.73144
1.55947E-6	-73.410352
1.559515E-6	-69.136402
1.55956E-6	-60.104612
1.559605E-6	-43.019865
1.55965E-6	-35.939711
1.559695E-6	-33.012037
1.55974E-6	-32.081691
1.559785E-6	-31.907097
1.55983E-6	-31.914514
1.559875E-6	-31.977738
1.55992E-6	-32.032869
1.559965E-6	-32.773661
1.56001E-6	-35.50059
1.560055E-6	-41.398417
1.5601E-6	-52.076083
1.560145E-6	-62.030096
1.56019E-6	-67.734001
1.560235E-6	-71.893643
1.56028E-6	-74.170281
1.560325E-6	-74.719837
1.56037E-6	-72.011423
1.560415E-6	-64.589202
1.56046E-6	-60.355989
1.560505E-6	-58.452718
1.56055E-6	-57.953375
1.560595E-6	-57.859513
1.56064E-6	-57.851562
1.560685E-6	-57.891466
1.56073E-6	-57.907532
1.560775E-6	-58.088285
1.56082E-6	-59.100949
1.560865E-6	-61.632962
1.56091E-6	-66.603498
1.560955E-6	-71.660883
1.561E-6	-74.875825
1.561045E-6	-74.8096
1.56109E-6	-73.482376
1.561135E-6	-69.538952
1.56118E-6	-61.194722
1.561225E-6	-44.042834
1.56127E-6	-36.23423
1.561315E-6	-33.062731
1.56136E-6	-31.968161
1.561405E-6	-31.789452
1.56145E-6	-31.816421
1.561495E-6	-31.88224
1.56154E-6	-31.979107
1.561585E-6	-32.623304
1.56163E-6	-35.09901
1.561675E-6	-40.550241
1.56172E-6	-50.914614
1.561765E-6	-61.490476
1.56181E-6	-67.155693
1.561855E-6	-71.669167
1.5619E-6	-74.170281
1.561945E-6	-75.158426
1.56199E-6	-73.295686
1.562035E-6	-66.26904
1.56208E-6	-61.558958
1.562125E-6	-59.476909
1.56217E-6	-58.820662
1.562215E-6	-58.699881
1.56226E-6	-58.703101
1.562305E-6	-58.735439
1.56235E-6	-58.758219
1.562395E-6	-58.877302
1.56244E-6	-59.629721
1.562485E-6	-61.878892
1.56253E-6	-66.217839
1.562575E-6	-71.202735
1.56262E-6	-74.564286
1.562665E-6	-74.982563
1.56271E-6	-74.189611
1.562755E-6	-71.137914
1.5628E-6	-63.789276
1.562845E-6	-49.100949
1.56289E-6	-37.392133
1.562935E-6	-33.558569
1.56298E-6	-32.005905
1.563025E-6	-31.72114
1.56307E-6	-31.767867
1.563115E-6	-31.845551
1.56316E-6	-31.951113
1.563205E-6	-32.389747
1.56325E-6	-34.409317
1.563295E-6	-39.329291
1.56334E-6	-48.817353
1.563385E-6	-59.661743
1.56343E-6	-65.8603
1.563475E-6	-70.94474
1.56352E-6	-73.719177
1.563565E-6	-74.91605
1.56361E-6	-74.387793
1.563655E-6	-69.222688
1.5637E-6	-63.453422
1.563745E-6	-60.855511
1.56379E-6	-59.943906
1.563835E-6	-59.771594
1.56388E-6	-59.783973
1.563925E-6	-59.808837
1.56397E-6	-59.833845
1.564015E-6	-59.948195
1.56406E-6	-60.442642
1.564105E-6	-62.253371
1.56415E-6	-66.004993
1.564195E-6	-71.0122
1.56424E-6	-74.569258
1.564285E-6	-75.358086
1.56433E-6	-74.820128
1.564375E-6	-72.502637
1.56442E-6	-66.154674
1.564465E-6	-53.733517
1.56451E-6	-39.593977
1.564555E-6	-34.540747
1.5646E-6	-32.347041
1.564645E-6	-31.906423
1.56469E-6	-31.93142
1.564735E-6	-32.010733
1.56478E-6	-32.123979
1.564825E-6	-32.4071
1.56487E-6	-33.860525
1.564915E-6	-37.759852
1.56496E-6	-45.807053
1.565005E-6	-57.478754
1.56505E-6	-64.007721
1.565095E-6	-69.783973
1.56514E-6	-73.567448
1.565185E-6	-75.152732
1.56523E-6	-75.295895
1.565275E-6	-71.77309
1.56532E-6	-65.712175
1.565365E-6	-62.543008
1.56541E-6	-61.296546
1.565455E-6	-61.060719
1.5655E-6	-61.05075
1.565545E-6	-61.103622
1.56559E-6	-61.113152
1.565635E-6	-61.166793
1.56568E-6	-61.458155
1.565725E-6	-62.824959
1.56577E-6	-65.939711
1.565815E-6	-70.34422
1.56586E-6	-74.348608
1.565905E-6	-75.710557
1.56595E-6	-75.469876
1.565995E-6	-73.696738
1.56604E-6	-69.041335
1.566085E-6	-59.755143
1.56613E-6	-42.829123
1.566175E-6	-35.614577
1.56622E-6	-32.805858
1.566265E-6	-31.930065
1.56631E-6	-31.889615
1.566355E-6	-31.995579
1.5664E-6	-32.089413
1.566445E-6	-32.281187
1.56649E-6	-33.269791
1.566535E-6	-36.411138
1.56658E-6	-42.94564
1.566625E-6	-54.782084
1.56667E-6	-61.936165
1.566715E-6	-68.934691
1.56676E-6	-72.908149
1.566805E-6	-74.804345
1.56685E-6	-75.284149
1.566895E-6	-73.757179
1.56694E-6	-69.122186
1.566985E-6	-64.698003
1.56703E-6	-62.94992
1.567075E-6	-62.486439
1.56712E-6	-62.401056
1.567165E-6	-62.456517
1.56721E-6	-62.486439
1.567255E-6	-62.501864
1.5673E-6	-62.652002
1.567345E-6	-63.5164
1.56739E-6	-65.902359
1.567435E-6	-69.653715
1.56748E-6	-74.071573
1.567525E-6	-76.42637
1.56757E-6	-76.577748
1.567615E-6	-77.128704
1.56766E-6	-76.464684
1.567705E-6	-75.589336
1.56775E-6	-70.704278
1.567795E-6	-65.980827
1.56784E-6	-63.836295
1.567885E-6	-63.223018
1.56793E-6	-63.118472
1.567975E-6	-63.128279
1.56802E-6	-63.190303
1.568065E-6	-63.198459
1.56811E-6	-63.284569
1.568155E-6	-63.905123
1.5682E-6	-65.915904
1.568245E-6	-69.351678
1.56829E-6	-73.831046
1.568335E-6	-76.076548
1.56838E-6	-76.651443
1.568425E-6	-76.718243
1.56847E-6	-76.422557
1.568515E-6	-75.830268
1.56856E-6	-72.364223
1.568605E-6	-67.392133
1.56865E-6	-64.889192
1.568695E-6	-63.921163
1.56874E-6	-63.800723
1.568785E-6	-63.802807
1.56883E-6	-63.857357
1.568875E-6	-63.900856
1.56892E-6	-63.9545
1.568965E-6	-64.364003
1.56901E-6	-65.955084
1.569055E-6	-69.381707
1.5691E-6	-73.363933
1.569145E-6	-76.071273
1.56919E-6	-76.691805
1.569235E-6	-76.534514
1.56928E-6	-77.081873
1.569325E-6	-76.643415
1.56937E-6	-73.967473
1.569415E-6	-69.336741
1.56946E-6	-66.031036
1.569505E-6	-64.806972
1.56955E-6	-64.546929
1.569595E-6	-64.490382
1.56964E-6	-64.507514
1.569685E-6	-64.571746
1.56973E-6	-64.666093
1.569775E-6	-64.917397
1.56982E-6	-66.120765
1.569865E-6	-68.910969
1.56991E-6	-72.705922
1.569955E-6	-76.140364
1.57E-6	-76.732546
