Wavelength (nm)	Power (dBm)
1.525E-6	-72.120439
1.525045E-6	-72.090818
1.52509E-6	-72.463404
1.525135E-6	-74.452686
1.52518E-6	-78.566729
1.525225E-6	-80.819172
1.52527E-6	-82.555505
1.525315E-6	-83.477537
1.52536E-6	-82.796753
1.525405E-6	-84.410516
1.52545E-6	-82.372464
1.525495E-6	-76.983191
1.52554E-6	-73.214816
1.525585E-6	-71.557714
1.52563E-6	-70.922126
1.525675E-6	-70.760828
1.52572E-6	-70.508052
1.525765E-6	-70.347983
1.52581E-6	-70.296531
1.525855E-6	-70.468688
1.5259E-6	-72.412395
1.525945E-6	-75.756084
1.52599E-6	-78.520147
1.526035E-6	-81.843559
1.52608E-6	-82.903061
1.526125E-6	-84.527177
1.52617E-6	-82.739251
1.526215E-6	-82.136746
1.52626E-6	-77.171514
1.526305E-6	-72.452695
1.52635E-6	-70.227338
1.526395E-6	-69.465374
1.52644E-6	-69.19013
1.526485E-6	-69.175737
1.52653E-6	-69.097419
1.526575E-6	-69.08333
1.52662E-6	-69.200955
1.526665E-6	-70.319375
1.52671E-6	-73.332013
1.526755E-6	-78.541823
1.5268E-6	-81.123264
1.526845E-6	-82.90052
1.52689E-6	-82.360482
1.526935E-6	-83.923306
1.52698E-6	-83.966391
1.527025E-6	-78.471004
1.52707E-6	-72.230084
1.527115E-6	-69.453869
1.52716E-6	-68.350526
1.527205E-6	-68.016179
1.52725E-6	-67.883456
1.527295E-6	-67.767637
1.52734E-6	-67.734001
1.527385E-6	-67.859513
1.52743E-6	-68.790972
1.527475E-6	-71.120453
1.52752E-6	-75.691191
1.527565E-6	-79.076303
1.52761E-6	-82.93709
1.527655E-6	-82.892904
1.5277E-6	-83.404641
1.527745E-6	-82.338847
1.52779E-6	-79.775716
1.527835E-6	-72.599533
1.52788E-6	-68.999743
1.527925E-6	-67.420815
1.52797E-6	-67.028963
1.528015E-6	-66.959405
1.52806E-6	-66.9897
1.528105E-6	-66.912222
1.52815E-6	-66.905828
1.528195E-6	-67.432823
1.52824E-6	-69.450041
1.528285E-6	-73.414163
1.52833E-6	-79.582127
1.528375E-6	-81.37809
1.52842E-6	-82.046762
1.528465E-6	-83.64818
1.52851E-6	-82.148838
1.528555E-6	-80.245222
1.5286E-6	-73.448616
1.528645E-6	-69.020489
1.52869E-6	-66.846595
1.528735E-6	-66.243364
1.52878E-6	-66.158259
1.528825E-6	-66.201508
1.52887E-6	-66.083593
1.528915E-6	-66.080069
1.52896E-6	-66.403542
1.529005E-6	-67.956087
1.52905E-6	-71.011652
1.529095E-6	-76.773673
1.52914E-6	-80.507076
1.529185E-6	-82.129648
1.52923E-6	-82.695407
1.529275E-6	-83.645163
1.52932E-6	-81.498441
1.529365E-6	-74.982563
1.52941E-6	-69.519468
1.529455E-6	-66.712128
1.5295E-6	-65.798792
1.529545E-6	-65.659104
1.52959E-6	-65.556429
1.529635E-6	-65.523769
1.52968E-6	-65.463759
1.529725E-6	-65.525319
1.52977E-6	-66.667543
1.529815E-6	-69.461536
1.52986E-6	-73.783045
1.529905E-6	-78.489367
1.52995E-6	-81.77505
1.529995E-6	-81.889615
1.53004E-6	-82.142432
1.530085E-6	-82.12327
1.53013E-6	-78.362425
1.530175E-6	-70.656531
1.53022E-6	-66.950788
1.530265E-6	-65.609833
1.53031E-6	-65.270973
1.530355E-6	-65.225893
1.5304E-6	-65.207127
1.530445E-6	-65.13853
1.53049E-6	-65.240384
1.530535E-6	-65.775743
1.53058E-6	-67.880789
1.530625E-6	-71.723077
1.53067E-6	-77.311881
1.530715E-6	-80.579423
1.53076E-6	-81.936843
1.530805E-6	-82.703493
1.53085E-6	-82.304012
1.530895E-6	-80.090842
1.53094E-6	-72.404077
1.530985E-6	-67.500682
1.53103E-6	-65.702477
1.531075E-6	-65.107448
1.53112E-6	-64.968906
1.531165E-6	-64.993519
1.53121E-6	-64.933597
1.531255E-6	-64.981195
1.5313E-6	-65.326879
1.531345E-6	-66.798537
1.53139E-6	-69.800533
1.531435E-6	-75.465288
1.53148E-6	-79.329291
1.531525E-6	-82.732728
1.53157E-6	-82.580609
1.531615E-6	-82.281921
1.53166E-6	-81.788141
1.531705E-6	-74.887853
1.53175E-6	-69.093893
1.531795E-6	-65.968795
1.53184E-6	-65.13853
1.531885E-6	-64.985299
1.53193E-6	-65.014138
1.531975E-6	-64.968906
1.53202E-6	-64.966179
1.532065E-6	-65.125788
1.53211E-6	-66.067759
1.532155E-6	-68.526329
1.5322E-6	-72.943073
1.532245E-6	-79.434763
1.53229E-6	-81.844223
1.532335E-6	-82.498003
1.53238E-6	-82.536772
1.532425E-6	-82.189631
1.53247E-6	-79.058784
1.532515E-6	-71.199299
1.53256E-6	-66.882461
1.532605E-6	-65.52222
1.53265E-6	-65.130031
1.532695E-6	-65.089186
1.53274E-6	-65.114493
1.532785E-6	-65.104634
1.53283E-6	-65.198493
1.532875E-6	-65.700863
1.53292E-6	-67.554755
1.532965E-6	-71.041908
1.53301E-6	-77.242281
1.533055E-6	-80.280287
1.5331E-6	-81.976368
1.533145E-6	-83.664306
1.53319E-6	-82.249724
1.533235E-6	-81.02923
1.53328E-6	-74.168012
1.533325E-6	-68.934691
1.53337E-6	-66.26904
1.533415E-6	-65.641556
1.53346E-6	-65.509847
1.533505E-6	-65.536182
1.53355E-6	-65.606673
1.533595E-6	-65.702477
1.53364E-6	-65.905741
1.533685E-6	-67.130946
1.53373E-6	-69.706162
1.533775E-6	-74.719837
1.53382E-6	-79.550685
1.533865E-6	-81.647535
1.53391E-6	-81.897003
1.533955E-6	-81.91654
1.534E-6	-82.267989
1.534045E-6	-77.335331
1.53409E-6	-71.447232
1.534135E-6	-67.770236
1.53418E-6	-66.577748
1.534225E-6	-66.239708
1.53427E-6	-66.304131
1.534315E-6	-66.35449
1.53436E-6	-66.369524
1.534405E-6	-66.449318
1.53445E-6	-67.061956
1.534495E-6	-69.157813
1.53454E-6	-72.735173
1.534585E-6	-78.335699
1.53463E-6	-81.483137
1.534675E-6	-83.318005
1.53472E-6	-82.486439
1.534765E-6	-83.574366
1.53481E-6	-81.292451
1.534855E-6	-74.332091
1.5349E-6	-69.850597
1.534945E-6	-67.705742
1.53499E-6	-67.055338
1.535035E-6	-67.013652
1.53508E-6	-67.059749
1.535125E-6	-67.081873
1.53517E-6	-67.20105
1.535215E-6	-67.361273
1.53526E-6	-68.677403
1.535305E-6	-71.400815
1.53535E-6	-76.720284
1.535395E-6	-79.965395
1.53544E-6	-81.7399
1.535485E-6	-82.136746
1.53553E-6	-83.239469
1.535575E-6	-81.609621
1.53562E-6	-78.501653
1.535665E-6	-72.376216
1.53571E-6	-69.161392
1.535755E-6	-67.950665
1.5358E-6	-67.619539
1.535845E-6	-67.728849
1.53589E-6	-67.81202
1.535935E-6	-67.780644
1.53598E-6	-67.920965
1.536025E-6	-68.613816
1.53607E-6	-70.372993
1.536115E-6	-74.315636
1.53616E-6	-79.637705
1.536205E-6	-81.65325
1.53625E-6	-82.233714
1.536295E-6	-82.25483
1.53634E-6	-83.265183
1.536385E-6	-80.854453
1.53643E-6	-75.608253
1.536475E-6	-70.817599
1.53652E-6	-69.027427
1.536565E-6	-68.365404
1.53661E-6	-68.300318
1.536655E-6	-68.410347
1.5367E-6	-68.38632
1.536745E-6	-68.365404
1.53679E-6	-68.59492
1.536835E-6	-69.775716
1.53688E-6	-72.612194
1.536925E-6	-77.629592
1.53697E-6	-78.735439
1.537015E-6	-81.8809
1.53706E-6	-82.183882
1.537105E-6	-82.652802
1.53715E-6	-82.036338
1.537195E-6	-79.027427
1.53724E-6	-73.153341
1.537285E-6	-70.228253
1.53733E-6	-68.890738
1.537375E-6	-68.732194
1.53742E-6	-68.667805
1.537465E-6	-68.645493
1.53751E-6	-68.774565
1.537555E-6	-68.794261
1.5376E-6	-69.370422
1.537645E-6	-71.290112
1.53769E-6	-75.247648
1.537735E-6	-79.013563
1.53778E-6	-82.307704
1.537825E-6	-81.777665
1.53787E-6	-81.504577
1.537915E-6	-83.392294
1.53796E-6	-81.111468
1.538005E-6	-75.848596
1.53805E-6	-71.818401
1.538095E-6	-69.613798
1.53814E-6	-68.992849
1.538185E-6	-68.9279
1.53823E-6	-68.847224
1.538275E-6	-68.85389
1.53832E-6	-68.850556
1.538365E-6	-68.992849
1.53841E-6	-70.124231
1.538455E-6	-72.597163
1.5385E-6	-78.013429
1.538545E-6	-80.914614
1.53859E-6	-82.764622
1.538635E-6	-82.326215
1.53868E-6	-82.713216
1.538725E-6	-81.992142
1.53877E-6	-80.038825
1.538815E-6	-73.862639
1.53886E-6	-70.46192
1.538905E-6	-69.147094
1.53895E-6	-68.91435
1.538995E-6	-68.850556
1.53904E-6	-68.814046
1.539085E-6	-68.754958
1.53913E-6	-68.857227
1.539175E-6	-69.34047
1.53922E-6	-71.12833
1.539265E-6	-74.591702
1.53931E-6	-78.745187
1.539355E-6	-81.780936
1.5394E-6	-82.388995
1.539445E-6	-83.082115
1.53949E-6	-83.896593
1.539535E-6	-80.8019
1.53958E-6	-76.528652
1.539625E-6	-71.772437
1.53967E-6	-69.597934
1.539715E-6	-68.900841
1.53976E-6	-68.661419
1.539805E-6	-68.664611
1.53985E-6	-68.601209
1.539895E-6	-68.664611
1.53994E-6	-68.774565
1.539985E-6	-69.734667
1.54003E-6	-72.458046
1.540075E-6	-76.759234
1.54012E-6	-80.093504
1.540165E-6	-81.666616
1.54021E-6	-82.448877
1.540255E-6	-82.974833
1.5403E-6	-81.608992
1.540345E-6	-80.351278
1.54039E-6	-73.858413
1.540435E-6	-70.488568
1.54048E-6	-68.992849
1.540525E-6	-68.474059
1.54057E-6	-68.419392
1.540615E-6	-68.377344
1.54066E-6	-68.374356
1.540705E-6	-68.377344
1.54075E-6	-68.728952
1.540795E-6	-70.223678
1.54084E-6	-73.857357
1.540885E-6	-79.262816
1.54093E-6	-81.233204
1.540975E-6	-82.230084
1.54102E-6	-82.685724
1.541065E-6	-82.275316
1.54111E-6	-83.162327
1.541155E-6	-77.142177
1.5412E-6	-71.90373
1.541245E-6	-69.3968
1.54129E-6	-68.422411
1.541335E-6	-68.178708
1.54138E-6	-68.099486
1.541425E-6	-68.021683
1.54147E-6	-68.08549
1.541515E-6	-68.164455
1.54156E-6	-68.87395
1.541605E-6	-70.994144
1.54165E-6	-75.194182
1.541695E-6	-79.601894
1.54174E-6	-80.454681
1.541785E-6	-80.165541
1.54183E-6	-78.380334
1.541875E-6	-72.516569
1.54192E-6	-63.018124
1.541965E-6	-46.942188
1.54201E-6	-38.23041
1.542055E-6	-35.279753
1.5421E-6	-34.292236
1.542145E-6	-34.117283
1.54219E-6	-34.06271
1.542235E-6	-34.018664
1.54228E-6	-34.125135
1.542325E-6	-35.325399
1.54237E-6	-38.951716
1.542415E-6	-46.468535
1.54246E-6	-58.23041
1.542505E-6	-65.175552
1.54255E-6	-71.704389
1.542595E-6	-77.050931
1.54264E-6	-79.197344
1.542685E-6	-80.158329
1.54273E-6	-77.469044
1.542775E-6	-72.474138
1.54282E-6	-69.329291
1.542865E-6	-68.113527
1.54291E-6	-67.728849
1.542955E-6	-67.652297
1.543E-6	-67.721133
1.543045E-6	-67.572102
1.54309E-6	-67.612014
1.543135E-6	-68.195874
1.54318E-6	-69.888526
1.543225E-6	-73.462088
1.54327E-6	-78.467951
1.543315E-6	-80.189519
1.54336E-6	-80.670699
1.543405E-6	-79.381707
1.54345E-6	-74.061603
1.543495E-6	-66.214204
1.54354E-6	-50.743785
1.543585E-6	-39.93962
1.54363E-6	-35.873715
1.543675E-6	-34.521023
1.54372E-6	-34.22968
1.543765E-6	-34.179366
1.54381E-6	-34.13863
1.543855E-6	-34.173686
1.5439E-6	-34.901257
1.543945E-6	-37.574586
1.54399E-6	-43.372422
1.544035E-6	-55.352125
1.54408E-6	-63.038184
1.544125E-6	-69.742846
1.54417E-6	-75.415132
1.544215E-6	-78.830604
1.54426E-6	-79.746941
1.544305E-6	-79.310724
1.54435E-6	-73.589227
1.544395E-6	-69.804683
1.54444E-6	-67.851562
1.544485E-6	-67.416022
1.54453E-6	-67.363639
1.544575E-6	-67.368375
1.54462E-6	-67.363639
1.544665E-6	-67.428016
1.54471E-6	-67.647241
1.544755E-6	-69.003194
1.5448E-6	-71.911141
1.544845E-6	-76.848697
1.54489E-6	-78.975663
1.544935E-6	-80.485168
1.54498E-6	-80.199057
1.545025E-6	-76.278247
1.54507E-6	-69.681877
1.545115E-6	-55.660702
1.54516E-6	-41.886261
1.545205E-6	-36.759234
1.54525E-6	-34.745664
1.545295E-6	-34.201021
1.54534E-6	-34.116162
1.545385E-6	-34.066032
1.54543E-6	-34.080454
1.545475E-6	-34.450265
1.54552E-6	-36.352614
1.545565E-6	-40.833355
1.54561E-6	-50.08641
1.545655E-6	-61.482526
1.5457E-6	-67.851562
1.545745E-6	-73.503731
1.54579E-6	-78.486301
1.545835E-6	-79.136402
1.54588E-6	-80.151578
1.545925E-6	-75.643149
1.54597E-6	-70.777937
1.546015E-6	-68.33866
1.54606E-6	-67.406451
1.546105E-6	-67.283907
1.54615E-6	-67.178312
1.546195E-6	-67.207895
1.54624E-6	-67.194216
1.546285E-6	-67.396901
1.54633E-6	-68.204482
1.546375E-6	-70.279361
1.54642E-6	-74.478187
1.546465E-6	-78.335699
1.54651E-6	-80.40148
1.546555E-6	-80.07049
1.5466E-6	-78.498578
1.546645E-6	-72.860896
1.54669E-6	-63.332949
1.546735E-6	-47.843624
1.54678E-6	-38.601209
1.546825E-6	-35.519123
1.54687E-6	-34.383025
1.546915E-6	-34.207882
1.54696E-6	-34.165745
1.547005E-6	-34.14201
1.54705E-6	-34.264322
1.547095E-6	-35.298836
1.54714E-6	-38.557372
1.547185E-6	-45.304725
1.54723E-6	-57.375489
1.547275E-6	-64.618034
1.54732E-6	-71.084625
1.547365E-6	-76.784016
1.54741E-6	-78.800846
1.547455E-6	-79.909743
1.5475E-6	-78.323873
1.547545E-6	-72.66562
1.54759E-6	-69.154237
1.547635E-6	-67.552282
1.54768E-6	-67.171514
1.547725E-6	-67.108572
1.54777E-6	-67.166988
1.547815E-6	-67.121983
1.54786E-6	-67.164726
1.547905E-6	-67.557229
1.54795E-6	-69.08333
1.547995E-6	-72.148126
1.54804E-6	-77.002748
1.548085E-6	-80.038825
1.54813E-6	-80.105502
1.548175E-6	-79.995659
1.54822E-6	-76.126102
1.548265E-6	-68.904215
1.54831E-6	-54.581712
1.548355E-6	-41.457547
1.5484E-6	-36.458916
1.548445E-6	-34.585456
1.54849E-6	-34.14201
1.548535E-6	-34.061603
1.54858E-6	-34.05718
1.548625E-6	-34.064924
1.54867E-6	-34.473318
1.548715E-6	-36.460838
1.54876E-6	-41.056839
1.548805E-6	-50.666646
1.54885E-6	-61.928033
1.548895E-6	-68.224635
1.54894E-6	-73.722246
1.548985E-6	-77.609509
1.54903E-6	-79.480761
1.549075E-6	-79.913998
1.54912E-6	-75.491353
1.549165E-6	-70.760828
1.54921E-6	-68.291518
1.549255E-6	-67.351822
1.5493E-6	-67.16925
1.549345E-6	-67.146678
1.54939E-6	-67.142177
1.549435E-6	-67.151183
1.54948E-6	-67.295541
1.549525E-6	-68.096683
1.54957E-6	-70.136314
1.549615E-6	-74.361631
1.54966E-6	-79.344203
1.549705E-6	-80.403863
1.54975E-6	-80.202696
1.549795E-6	-78.53872
1.54984E-6	-72.886146
1.549885E-6	-64.53334
1.54993E-6	-48.880657
1.549975E-6	-38.897471
1.55002E-6	-35.589336
1.550065E-6	-34.373503
1.55011E-6	-34.160082
1.550155E-6	-34.134127
1.5502E-6	-34.129629
1.550245E-6	-34.181641
1.55029E-6	-34.886515
1.550335E-6	-37.619539
1.55038E-6	-43.718155
1.550425E-6	-55.712175
1.55047E-6	-63.283644
1.550515E-6	-69.854795
1.55056E-6	-75.744658
1.550605E-6	-78.425432
1.55065E-6	-79.641702
1.550695E-6	-78.951716
1.55074E-6	-73.456309
1.550785E-6	-69.496202
1.55083E-6	-67.609509
1.550875E-6	-67.124222
1.55092E-6	-67.090754
1.550965E-6	-67.013652
1.55101E-6	-67.075224
1.551055E-6	-66.983191
1.5511E-6	-67.274622
1.551145E-6	-68.50473
1.55119E-6	-71.206747
1.551235E-6	-76.165437
1.55128E-6	-79.321855
1.551325E-6	-80.42728
1.55137E-6	-79.661743
1.551415E-6	-77.157949
1.55146E-6	-70.814979
1.551505E-6	-60.150678
1.55155E-6	-43.76234
1.551595E-6	-37.544873
1.55164E-6	-35.093393
1.551685E-6	-34.337983
1.55173E-6	-34.207882
1.551775E-6	-34.182778
1.55182E-6	-34.162346
1.551865E-6	-34.334447
1.55191E-6	-35.699249
1.551955E-6	-39.586073
1.552E-6	-47.358908
1.552045E-6	-59.24453
1.55209E-6	-65.998075
1.552135E-6	-72.014184
1.55218E-6	-77.515363
1.552225E-6	-78.955129
1.55227E-6	-79.978339
1.552315E-6	-76.673596
1.55236E-6	-71.716624
1.552405E-6	-68.541823
1.55245E-6	-67.219327
1.552495E-6	-66.804776
1.55254E-6	-66.905828
1.552585E-6	-66.880343
1.55263E-6	-66.950788
1.552675E-6	-66.92718
1.55272E-6	-67.344747
1.552765E-6	-69.055289
1.55281E-6	-72.433639
1.552855E-6	-77.677665
1.5529E-6	-80.030508
1.552945E-6	-79.779843
1.55299E-6	-79.590023
1.553035E-6	-75.37153
1.55308E-6	-68.551146
1.553125E-6	-53.992449
1.55317E-6	-40.90444
1.553215E-6	-36.217839
1.55326E-6	-34.516106
1.553305E-6	-34.109445
1.55335E-6	-34.012095
1.553395E-6	-33.984832
1.55344E-6	-33.965308
1.553485E-6	-34.333269
1.55353E-6	-36.318991
1.553575E-6	-40.753073
1.55362E-6	-50.296066
1.553665E-6	-61.337127
1.55371E-6	-67.639669
1.553755E-6	-73.638131
1.5538E-6	-78.271053
1.553845E-6	-79.496202
1.55389E-6	-79.37418
1.553935E-6	-75.418156
1.55398E-6	-70.484682
1.554025E-6	-67.685304
1.55407E-6	-66.893067
1.554115E-6	-66.697892
1.55416E-6	-66.712128
1.554205E-6	-66.720284
1.55425E-6	-66.643415
1.554295E-6	-66.726411
1.55434E-6	-67.473897
1.554385E-6	-69.605859
1.55443E-6	-73.436143
1.554475E-6	-78.204482
1.55452E-6	-81.316495
1.554565E-6	-81.7276
1.55461E-6	-81.44602
1.554655E-6	-81.650074
1.5547E-6	-81.256342
1.554745E-6	-74.993519
1.55479E-6	-69.969705
1.554835E-6	-67.447275
1.55488E-6	-66.732546
1.554925E-6	-66.601512
1.55497E-6	-66.583677
1.555015E-6	-66.575773
1.55506E-6	-66.544302
1.555105E-6	-66.689778
1.55515E-6	-67.447275
1.555195E-6	-69.586073
1.55524E-6	-73.832095
1.555285E-6	-78.093882
1.55533E-6	-81.334173
1.555375E-6	-82.601904
1.55542E-6	-81.7829
1.555465E-6	-81.90171
1.55551E-6	-80.9442
1.555555E-6	-74.249277
1.5556E-6	-69.590023
1.555645E-6	-67.304871
1.55569E-6	-66.631402
1.555735E-6	-66.507225
1.55578E-6	-66.487837
1.555825E-6	-66.530605
1.55587E-6	-66.532559
1.555915E-6	-66.639407
1.55596E-6	-67.488487
1.556005E-6	-69.746941
1.55605E-6	-74.474535
1.556095E-6	-78.344589
1.55614E-6	-81.12214
1.556185E-6	-83.046935
1.55623E-6	-82.4443
1.556275E-6	-81.60522
1.55632E-6	-80.692037
1.556365E-6	-74.113922
1.55641E-6	-69.427144
1.556455E-6	-67.124222
1.5565E-6	-66.577748
1.556545E-6	-66.534514
1.55659E-6	-66.478175
1.556635E-6	-66.495581
1.55668E-6	-66.478175
1.556725E-6	-66.637404
1.55677E-6	-67.612014
1.556815E-6	-69.875846
1.55686E-6	-74.340342
1.556905E-6	-79.681877
1.55695E-6	-81.325914
1.556995E-6	-81.816421
1.55704E-6	-82.061398
1.557085E-6	-81.780282
1.55713E-6	-80.530077
1.557175E-6	-73.833145
1.55722E-6	-69.377942
1.557265E-6	-67.164726
1.55731E-6	-66.548224
1.557355E-6	-66.513058
1.5574E-6	-66.478175
1.557445E-6	-66.509168
1.55749E-6	-66.563945
1.557535E-6	-66.734593
1.55758E-6	-67.587026
1.557625E-6	-70.03007
1.55767E-6	-74.564286
1.557715E-6	-79.069287
1.55776E-6	-81.694755
1.557805E-6	-82.711594
1.55785E-6	-82.924298
1.557895E-6	-81.580152
1.55794E-6	-80.876185
1.557985E-6	-73.818473
1.55803E-6	-69.321855
1.558075E-6	-67.153437
1.55812E-6	-66.5738
1.558165E-6	-66.487837
1.55821E-6	-66.528652
1.558255E-6	-66.462761
1.5583E-6	-66.518899
1.558345E-6	-66.68168
1.55839E-6	-67.710866
1.558435E-6	-69.978339
1.55848E-6	-74.576726
1.558525E-6	-78.687022
1.55857E-6	-81.592041
1.558615E-6	-82.150263
1.55866E-6	-81.824346
1.558705E-6	-84.125135
1.55875E-6	-80.605307
1.558795E-6	-73.708963
1.55884E-6	-69.393022
1.558885E-6	-67.23998
1.55893E-6	-66.821455
1.558975E-6	-66.755118
1.55902E-6	-66.728455
1.559065E-6	-66.765416
1.55911E-6	-66.771607
1.559155E-6	-66.85922
1.5592E-6	-67.910215
1.559245E-6	-70.182267
1.55929E-6	-74.849213
1.559335E-6	-78.687022
1.55938E-6	-81.044117
1.559425E-6	-82.071882
1.55947E-6	-83.244966
1.559515E-6	-83.339503
1.55956E-6	-81.145822
1.559605E-6	-74.121768
1.55965E-6	-69.714287
1.559695E-6	-67.510464
1.55974E-6	-67.037737
1.559785E-6	-66.899443
1.55983E-6	-66.831912
1.559875E-6	-66.933606
1.55992E-6	-66.985359
1.559965E-6	-67.119745
1.56001E-6	-68.144578
1.560055E-6	-70.477889
1.5601E-6	-75.001755
1.560145E-6	-79.118639
1.56019E-6	-82.308443
1.560235E-6	-82.517344
1.56028E-6	-83.007695
1.560325E-6	-81.942274
1.56037E-6	-80.53204
1.560415E-6	-74.592952
1.56046E-6	-70.113965
1.560505E-6	-67.966951
1.56055E-6	-67.260732
1.560595E-6	-67.279262
1.56064E-6	-67.256112
1.560685E-6	-67.276942
1.56073E-6	-67.210179
1.560775E-6	-67.354183
1.56082E-6	-68.341624
1.560865E-6	-70.534004
1.56091E-6	-74.869156
1.560955E-6	-78.830604
1.561E-6	-82.238802
1.561045E-6	-81.436337
1.56109E-6	-81.959288
1.561135E-6	-81.944991
1.56118E-6	-81.370342
1.561225E-6	-75.313573
1.56127E-6	-70.560605
1.561315E-6	-68.44057
1.56136E-6	-67.736579
1.561405E-6	-67.612014
1.56145E-6	-67.664962
1.561495E-6	-67.664962
1.56154E-6	-67.597004
1.561585E-6	-67.767637
1.56163E-6	-68.658229
1.561675E-6	-70.789381
1.56172E-6	-75.072396
1.561765E-6	-79.515582
1.56181E-6	-82.315099
1.561855E-6	-82.282656
1.5619E-6	-82.791794
1.561945E-6	-82.155254
1.56199E-6	-81.612139
1.562035E-6	-76.294869
1.56208E-6	-71.507035
1.562125E-6	-69.058784
1.56217E-6	-68.190144
1.562215E-6	-68.041003
1.56226E-6	-68.082696
1.562305E-6	-68.16161
1.56235E-6	-68.138916
1.562395E-6	-68.265224
1.56244E-6	-68.76475
1.562485E-6	-70.858685
1.56253E-6	-74.940365
1.562575E-6	-78.153086
1.56262E-6	-81.502736
1.562665E-6	-82.38448
1.56271E-6	-81.710824
1.562755E-6	-83.149752
1.5628E-6	-81.45694
1.562845E-6	-78.119156
1.56289E-6	-72.265061
1.562935E-6	-69.586073
1.56298E-6	-68.745187
1.563025E-6	-68.607508
1.56307E-6	-68.591778
1.563115E-6	-68.563608
1.56316E-6	-68.59492
1.563205E-6	-68.645493
1.56325E-6	-69.303319
1.563295E-6	-71.170203
1.56334E-6	-74.897232
1.563385E-6	-78.827287
1.56343E-6	-81.304163
1.563475E-6	-81.941595
1.56352E-6	-83.032942
1.563565E-6	-83.606131
1.56361E-6	-81.667254
1.563655E-6	-78.671002
1.5637E-6	-73.382819
1.563745E-6	-70.347042
1.56379E-6	-69.359166
1.563835E-6	-69.175737
1.56388E-6	-69.182927
1.563925E-6	-69.118639
1.56397E-6	-69.233596
1.564015E-6	-69.240882
1.56406E-6	-69.734667
1.564105E-6	-71.304749
1.56415E-6	-74.780778
1.564195E-6	-78.598063
1.56424E-6	-81.320025
1.564285E-6	-82.258481
1.56433E-6	-83.140792
1.564375E-6	-82.85
1.56442E-6	-82.004527
1.564465E-6	-79.863203
1.56451E-6	-74.248122
1.564555E-6	-71.321791
1.5646E-6	-70.056388
1.564645E-6	-69.755143
1.56469E-6	-69.742846
1.564735E-6	-69.796387
1.56478E-6	-69.884296
1.564825E-6	-69.850597
1.56487E-6	-70.107282
1.564915E-6	-71.526742
1.56496E-6	-74.771647
1.565005E-6	-78.449678
1.56505E-6	-81.667254
1.565095E-6	-82.121854
1.56514E-6	-83.012037
1.565185E-6	-82.83329
1.56523E-6	-82.536772
1.565275E-6	-81.36142
1.56532E-6	-75.427238
1.565365E-6	-72.109131
1.56541E-6	-70.86557
1.565455E-6	-70.414361
1.5655E-6	-70.453234
1.565545E-6	-70.377254
1.56559E-6	-70.483711
1.565635E-6	-70.433034
1.56568E-6	-70.743785
1.565725E-6	-71.780282
1.56577E-6	-74.67373
1.565815E-6	-79.629721
1.56586E-6	-81.379283
1.565905E-6	-82.84749
1.56595E-6	-82.167398
1.565995E-6	-83.424661
1.56604E-6	-83.470771
1.566085E-6	-82.429838
1.56613E-6	-77.101882
1.566175E-6	-73.242217
1.56622E-6	-71.551502
1.566265E-6	-71.150914
1.56631E-6	-70.973989
1.566355E-6	-70.953926
1.5664E-6	-71.019883
1.566445E-6	-71.051857
1.56649E-6	-71.321202
1.566535E-6	-72.138877
1.56658E-6	-74.862498
1.566625E-6	-79.370422
1.56667E-6	-82.219211
1.566715E-6	-82.413152
1.56676E-6	-84.385408
1.566805E-6	-82.734358
1.56685E-6	-83.174939
1.566895E-6	-82.635238
1.56694E-6	-78.725712
1.566985E-6	-74.551881
1.56703E-6	-72.25556
1.567075E-6	-71.761998
1.56712E-6	-71.801272
1.567165E-6	-71.737956
1.56721E-6	-71.771131
1.567255E-6	-71.918566
1.5673E-6	-71.886932
1.567345E-6	-72.622509
1.56739E-6	-74.691602
1.567435E-6	-78.620133
1.56748E-6	-81.292451
1.567525E-6	-83.384713
1.56757E-6	-82.372464
1.567615E-6	-82.957637
1.56766E-6	-83.199366
1.567705E-6	-83.326405
1.56775E-6	-79.863203
1.567795E-6	-75.304725
1.56784E-6	-73.435185
1.567885E-6	-72.562551
1.56793E-6	-72.243896
1.567975E-6	-72.432878
1.56802E-6	-72.57432
1.568065E-6	-72.521999
1.56811E-6	-72.638426
1.568155E-6	-73.106023
1.5682E-6	-74.994891
1.568245E-6	-78.4649
1.56829E-6	-80.917831
1.568335E-6	-82.447351
1.56838E-6	-83.56646
1.568425E-6	-81.723723
1.56847E-6	-82.276783
1.568515E-6	-83.425617
1.56856E-6	-80.94852
1.568605E-6	-76.593576
1.56865E-6	-74.115042
1.568695E-6	-73.37809
1.56874E-6	-73.288272
1.568785E-6	-73.009431
1.56883E-6	-73.139002
1.568875E-6	-73.165927
1.56892E-6	-73.330143
1.568965E-6	-73.7202
1.56901E-6	-75.01276
1.569055E-6	-78.038238
1.5691E-6	-80.235125
1.569145E-6	-83.49207
1.56919E-6	-83.523237
1.569235E-6	-84.124013
1.56928E-6	-83.333884
1.569325E-6	-120
1.56937E-6	-82.351516
1.569415E-6	-79.065783
1.56946E-6	-75.367044
1.569505E-6	-74.345064
1.56955E-6	-73.750994
1.569595E-6	-73.744818
1.56964E-6	-73.759243
1.569685E-6	-73.877461
1.56973E-6	-74.154426
1.569775E-6	-74.127382
1.56982E-6	-75.412111
1.569865E-6	-77.721133
1.56991E-6	-80.064315
1.569955E-6	-82.860896
1.57E-6	-83.484313
