Wavelength (nm)	Power (dBm)
1.525E-6	-44.434563
1.525045E-6	-44.277094
1.52509E-6	-44.248122
1.525135E-6	-44.340342
1.52518E-6	-44.393761
1.525225E-6	-44.352156
1.52527E-6	-44.195312
1.525315E-6	-44.042834
1.52536E-6	-43.879583
1.525405E-6	-43.76234
1.52545E-6	-43.534002
1.525495E-6	-43.135425
1.52554E-6	-42.597163
1.525585E-6	-42.275316
1.52563E-6	-42.099261
1.525675E-6	-41.899692
1.52572E-6	-41.74509
1.525765E-6	-41.560202
1.52581E-6	-41.42366
1.525855E-6	-41.442386
1.5259E-6	-41.684501
1.525945E-6	-42.005905
1.52599E-6	-42.03495
1.526035E-6	-41.952474
1.52608E-6	-41.794702
1.526125E-6	-41.719204
1.52617E-6	-41.595175
1.526215E-6	-41.452083
1.52626E-6	-40.966929
1.526305E-6	-40.391964
1.52635E-6	-39.948195
1.526395E-6	-39.677843
1.52644E-6	-39.515582
1.526485E-6	-39.419538
1.52653E-6	-39.273825
1.526575E-6	-39.143527
1.52662E-6	-39.118639
1.526665E-6	-39.408154
1.52671E-6	-39.875846
1.526755E-6	-40.080212
1.5268E-6	-40.033132
1.526845E-6	-39.952488
1.52689E-6	-39.884296
1.526935E-6	-39.779843
1.52698E-6	-39.665762
1.527025E-6	-39.273825
1.52707E-6	-38.566729
1.527115E-6	-37.9588
1.52716E-6	-37.639669
1.527205E-6	-37.46662
1.52725E-6	-37.394516
1.527295E-6	-37.23998
1.52734E-6	-37.173779
1.527385E-6	-37.173779
1.52743E-6	-37.437635
1.527475E-6	-38.074325
1.52752E-6	-38.495506
1.527565E-6	-38.607508
1.52761E-6	-38.598063
1.527655E-6	-38.477117
1.5277E-6	-38.452718
1.527745E-6	-38.359447
1.52779E-6	-38.071539
1.527835E-6	-37.344747
1.52788E-6	-36.5738
1.527925E-6	-36.201508
1.52797E-6	-36.018863
1.528015E-6	-35.900669
1.52806E-6	-35.905741
1.528105E-6	-35.828606
1.52815E-6	-35.845258
1.528195E-6	-36.07303
1.52824E-6	-36.767479
1.528285E-6	-37.459355
1.52833E-6	-37.71343
1.528375E-6	-37.74174
1.52842E-6	-37.772835
1.528465E-6	-37.721133
1.52851E-6	-37.690404
1.528555E-6	-37.537477
1.5286E-6	-36.8867
1.528645E-6	-35.991168
1.52869E-6	-35.463759
1.528735E-6	-35.238933
1.52878E-6	-35.201369
1.528825E-6	-35.176982
1.52887E-6	-35.172693
1.528915E-6	-35.147046
1.52896E-6	-35.282683
1.529005E-6	-35.946536
1.52905E-6	-36.871882
1.529095E-6	-37.416022
1.52914E-6	-37.515363
1.529185E-6	-37.549811
1.52923E-6	-37.520267
1.529275E-6	-37.420815
1.52932E-6	-36.85922
1.529365E-6	-29.259153
1.52941E-6	-20.168701
1.529455E-6	-16.152883
1.5295E-6	-14.624327
1.529545E-6	-14.244658
1.52959E-6	-14.108326
1.529635E-6	-14.051656
1.52968E-6	-14.049449
1.529725E-6	-14.8096
1.52977E-6	-17.682756
1.529815E-6	-24.024145
1.52986E-6	-32.903909
1.529905E-6	-36.724367
1.52995E-6	-37.432823
1.529995E-6	-37.557229
1.53004E-6	-37.577071
1.530085E-6	-37.592012
1.53013E-6	-37.377863
1.530175E-6	-36.520848
1.53022E-6	-35.520671
1.530265E-6	-35.000381
1.53031E-6	-34.901257
1.530355E-6	-34.875825
1.5304E-6	-34.89187
1.530445E-6	-34.871822
1.53049E-6	-34.921441
1.530535E-6	-35.244741
1.53058E-6	-36.115435
1.530625E-6	-37.144427
1.53067E-6	-37.649768
1.530715E-6	-37.74174
1.53076E-6	-37.746907
1.530805E-6	-37.739159
1.53085E-6	-37.609509
1.530895E-6	-36.232406
1.53094E-6	-25.715412
1.530985E-6	-18.680607
1.53103E-6	-15.531523
1.531075E-6	-14.644527
1.53112E-6	-14.463597
1.531165E-6	-14.403327
1.53121E-6	-14.347427
1.531255E-6	-14.492826
1.5313E-6	-15.715412
1.531345E-6	-19.377942
1.53139E-6	-27.119745
1.531435E-6	-34.925489
1.53148E-6	-37.316561
1.531525E-6	-37.71343
1.53157E-6	-37.838341
1.531615E-6	-37.862167
1.53166E-6	-37.848914
1.531705E-6	-37.416022
1.53175E-6	-36.33577
1.531795E-6	-35.418156
1.53184E-6	-35.05011
1.531885E-6	-34.977095
1.53193E-6	-35.001755
1.531975E-6	-35.015516
1.53202E-6	-34.993519
1.532065E-6	-35.064026
1.53211E-6	-35.539291
1.532155E-6	-36.611453
1.5322E-6	-37.572102
1.532245E-6	-37.947956
1.53229E-6	-37.999707
1.532335E-6	-38.013429
1.53238E-6	-37.999707
1.532425E-6	-37.739159
1.53247E-6	-34.974363
1.532515E-6	-23.390397
1.53256E-6	-17.4958
1.532605E-6	-15.241836
1.53265E-6	-14.644527
1.532695E-6	-14.563044
1.53274E-6	-14.57299
1.532785E-6	-14.631891
1.53283E-6	-14.985299
1.532875E-6	-16.643415
1.53292E-6	-20.890023
1.532965E-6	-29.641702
1.53301E-6	-36.11366
1.533055E-6	-37.759852
1.5331E-6	-38.077114
1.533145E-6	-38.167302
1.53319E-6	-38.201611
1.533235E-6	-38.130437
1.53328E-6	-37.597004
1.533325E-6	-36.589614
1.53337E-6	-35.836924
1.533415E-6	-35.578339
1.53346E-6	-35.517576
1.533505E-6	-35.562678
1.53355E-6	-35.606673
1.533595E-6	-35.644741
1.53364E-6	-35.813673
1.533685E-6	-36.378947
1.53373E-6	-37.307206
1.533775E-6	-38.091083
1.53382E-6	-38.359447
1.533865E-6	-38.41336
1.53391E-6	-38.428456
1.533955E-6	-38.380334
1.534E-6	-38.119156
1.534045E-6	-34.333269
1.53409E-6	-22.804201
1.534135E-6	-17.328283
1.53418E-6	-15.253467
1.534225E-6	-14.842586
1.53427E-6	-14.814861
1.534315E-6	-14.90663
1.53436E-6	-15.033471
1.534405E-6	-15.565805
1.53445E-6	-17.75208
1.534495E-6	-22.76955
1.53454E-6	-31.38167
1.534585E-6	-37.144427
1.53463E-6	-38.353498
1.534675E-6	-38.601209
1.53472E-6	-38.655041
1.534765E-6	-38.680607
1.53481E-6	-38.623295
1.534855E-6	-38.181564
1.5349E-6	-37.404061
1.534945E-6	-36.823545
1.53499E-6	-36.685727
1.535035E-6	-36.665527
1.53508E-6	-36.679657
1.535125E-6	-36.712128
1.53517E-6	-36.775739
1.535215E-6	-36.895191
1.53526E-6	-37.363639
1.535305E-6	-38.147412
1.53535E-6	-38.745187
1.535395E-6	-38.91435
1.53544E-6	-38.941493
1.535485E-6	-38.944898
1.53553E-6	-38.884015
1.535575E-6	-38.53872
1.53562E-6	-33.863696
1.535665E-6	-22.781894
1.53571E-6	-17.567139
1.535755E-6	-15.595632
1.5358E-6	-15.221555
1.535845E-6	-15.237482
1.53589E-6	-15.340226
1.535935E-6	-15.492891
1.53598E-6	-16.046736
1.536025E-6	-18.380334
1.53607E-6	-23.48722
1.536115E-6	-32.392007
1.53616E-6	-37.788467
1.536205E-6	-38.840568
1.53625E-6	-39.037854
1.536295E-6	-39.086848
1.53634E-6	-39.118639
1.536385E-6	-39.079815
1.53643E-6	-38.716007
1.536475E-6	-38.099486
1.53652E-6	-37.642191
1.536565E-6	-37.490923
1.53661E-6	-37.503126
1.536655E-6	-37.530093
1.5367E-6	-37.544873
1.536745E-6	-37.559704
1.53679E-6	-37.659892
1.536835E-6	-38.052082
1.53688E-6	-38.683813
1.536925E-6	-39.122186
1.53697E-6	-39.251836
1.537015E-6	-39.262816
1.53706E-6	-39.237237
1.537105E-6	-39.179331
1.53715E-6	-38.863908
1.537195E-6	-34.30509
1.53724E-6	-23.075056
1.537285E-6	-17.92635
1.53733E-6	-15.858626
1.537375E-6	-15.448505
1.53742E-6	-15.431787
1.537465E-6	-15.448505
1.53751E-6	-15.508303
1.537555E-6	-15.996347
1.5376E-6	-18.250684
1.537645E-6	-23.37809
1.53769E-6	-32.458046
1.537735E-6	-37.923656
1.53778E-6	-39.020489
1.537825E-6	-39.219058
1.53787E-6	-39.273825
1.537915E-6	-39.30702
1.53796E-6	-39.292235
1.538005E-6	-38.975663
1.53805E-6	-38.404328
1.538095E-6	-37.977842
1.53814E-6	-37.833064
1.538185E-6	-37.833064
1.53823E-6	-37.838341
1.538275E-6	-37.840982
1.53832E-6	-37.840982
1.538365E-6	-37.910215
1.53841E-6	-38.282735
1.538455E-6	-38.847224
1.5385E-6	-39.259153
1.538545E-6	-39.37418
1.53859E-6	-39.389247
1.538635E-6	-39.408154
1.53868E-6	-39.344203
1.538725E-6	-39.072794
1.53877E-6	-35.419668
1.538815E-6	-24.017568
1.53886E-6	-18.569852
1.538905E-6	-16.216021
1.53895E-6	-15.717032
1.538995E-6	-15.638374
1.53904E-6	-15.592483
1.539085E-6	-15.573635
1.53913E-6	-15.932895
1.539175E-6	-17.950665
1.53922E-6	-22.705922
1.539265E-6	-31.419443
1.53931E-6	-37.785858
1.539355E-6	-39.108016
1.5394E-6	-39.370422
1.539445E-6	-39.446217
1.53949E-6	-39.476909
1.539535E-6	-39.446217
1.53958E-6	-39.150664
1.539625E-6	-38.560489
1.53967E-6	-38.105097
1.539715E-6	-37.950665
1.53976E-6	-37.92635
1.539805E-6	-37.923656
1.53985E-6	-37.918275
1.539895E-6	-37.910215
1.53994E-6	-37.991495
1.539985E-6	-38.335699
1.54003E-6	-38.931295
1.540075E-6	-39.393022
1.54012E-6	-39.527251
1.540165E-6	-39.550685
1.54021E-6	-39.550685
1.540255E-6	-39.515582
1.5403E-6	-39.325572
1.540345E-6	-36.784016
1.54039E-6	-25.394028
1.540435E-6	-19.229957
1.54048E-6	-16.615435
1.540525E-6	-15.892228
1.54057E-6	-15.779028
1.540615E-6	-15.707323
1.54066E-6	-15.652715
1.540705E-6	-15.949953
1.54075E-6	-17.647241
1.540795E-6	-21.940236
1.54084E-6	-30.281677
1.540885E-6	-37.469044
1.54093E-6	-39.164974
1.540975E-6	-39.519468
1.54102E-6	-39.586073
1.541065E-6	-39.609827
1.54111E-6	-39.593977
1.541155E-6	-39.329291
1.5412E-6	-38.690233
1.541245E-6	-38.153086
1.54129E-6	-37.923656
1.541335E-6	-37.85421
1.54138E-6	-37.833064
1.541425E-6	-37.835702
1.54147E-6	-37.843624
1.541515E-6	-37.90485
1.54156E-6	-38.204482
1.541605E-6	-38.840568
1.54165E-6	-39.419538
1.541695E-6	-39.629721
1.54174E-6	-39.681877
1.541785E-6	-39.681877
1.54183E-6	-39.661743
1.541875E-6	-39.492337
1.54192E-6	-38.005191
1.541965E-6	-26.946486
1.54201E-6	-19.905491
1.542055E-6	-16.92932
1.5421E-6	-16.027554
1.542145E-6	-15.840256
1.54219E-6	-15.764265
1.542235E-6	-15.733261
1.54228E-6	-15.831931
1.542325E-6	-17.013652
1.54237E-6	-20.41962
1.542415E-6	-28.193008
1.54246E-6	-36.318991
1.542505E-6	-39.034376
1.54255E-6	-39.586073
1.542595E-6	-39.681877
1.54264E-6	-39.694003
1.542685E-6	-39.689957
1.54273E-6	-39.523358
1.542775E-6	-38.90759
1.54282E-6	-38.236193
1.542865E-6	-37.87546
1.54291E-6	-37.804155
1.542955E-6	-37.791078
1.543E-6	-37.806775
1.543045E-6	-37.806775
1.54309E-6	-37.8199
1.543135E-6	-38.043771
1.54318E-6	-38.639139
1.543225E-6	-39.35542
1.54327E-6	-39.718356
1.543315E-6	-39.796387
1.54336E-6	-39.796387
1.543405E-6	-39.788107
1.54345E-6	-39.677843
1.543495E-6	-38.996295
1.54354E-6	-31.359044
1.543585E-6	-21.687703
1.54363E-6	-17.652297
1.543675E-6	-16.252517
1.54372E-6	-15.979106
1.543765E-6	-15.948245
1.54381E-6	-15.900669
1.543855E-6	-15.953373
1.5439E-6	-16.746896
1.543945E-6	-19.500071
1.54399E-6	-25.861975
1.544035E-6	-34.793855
1.54408E-6	-38.8706
1.544125E-6	-39.653715
1.54417E-6	-39.821323
1.544215E-6	-39.863203
1.54426E-6	-39.884296
1.544305E-6	-39.783973
1.54435E-6	-39.215432
1.544395E-6	-38.44664
1.54444E-6	-37.975117
1.544485E-6	-37.851562
1.54453E-6	-37.833064
1.544575E-6	-37.848914
1.54462E-6	-37.835702
1.544665E-6	-37.85421
1.54471E-6	-37.964232
1.544755E-6	-38.495506
1.5448E-6	-39.321855
1.544845E-6	-39.833845
1.54489E-6	-39.965395
1.544935E-6	-39.978339
1.54498E-6	-39.952488
1.545025E-6	-39.931063
1.54507E-6	-39.601894
1.545115E-6	-35.079384
1.54516E-6	-24.013189
1.545205E-6	-18.814046
1.54525E-6	-16.619421
1.545295E-6	-16.133227
1.54534E-6	-16.062494
1.545385E-6	-16.029295
1.54543E-6	-16.025815
1.545475E-6	-16.358244
1.54552E-6	-18.150248
1.545565E-6	-22.771194
1.54561E-6	-30.908721
1.545655E-6	-38.057633
1.5457E-6	-39.641702
1.545745E-6	-39.956786
1.54579E-6	-40.027447
1.545835E-6	-40.064315
1.54588E-6	-40.032257
1.545925E-6	-39.689957
1.54597E-6	-38.92112
1.546015E-6	-38.262312
1.54606E-6	-37.994231
1.546105E-6	-37.966951
1.54615E-6	-37.975117
1.546195E-6	-37.964232
1.54624E-6	-37.961515
1.546285E-6	-38.024438
1.54633E-6	-38.389316
1.546375E-6	-39.129288
1.54642E-6	-39.842212
1.546465E-6	-40.13094
1.54651E-6	-40.164639
1.546555E-6	-40.178645
1.5466E-6	-40.164639
1.546645E-6	-40.023515
1.54669E-6	-38.76475
1.546735E-6	-28.982529
1.54678E-6	-20.876716
1.546825E-6	-17.547342
1.54687E-6	-16.513058
1.546915E-6	-16.348866
1.54696E-6	-16.313413
1.547005E-6	-16.298572
1.54705E-6	-16.414941
1.547095E-6	-17.500682
1.54714E-6	-20.751007
1.547185E-6	-27.89414
1.54723E-6	-36.422557
1.547275E-6	-39.496202
1.54732E-6	-40.075349
1.547365E-6	-40.208615
1.54741E-6	-40.256726
1.547455E-6	-40.247061
1.5475E-6	-40.06079
1.547545E-6	-39.430951
1.54759E-6	-38.635966
1.547635E-6	-38.236193
1.54768E-6	-38.113527
1.547725E-6	-38.107905
1.54777E-6	-38.119156
1.547815E-6	-38.124793
1.54786E-6	-38.167302
1.547905E-6	-38.347557
1.54795E-6	-38.931295
1.547995E-6	-39.734667
1.54804E-6	-40.227796
1.548085E-6	-40.325924
1.54813E-6	-40.350807
1.548175E-6	-40.346101
1.54822E-6	-40.271494
1.548265E-6	-39.854795
1.54831E-6	-33.922234
1.548355E-6	-23.320803
1.5484E-6	-18.794261
1.548445E-6	-16.890944
1.54849E-6	-16.476245
1.548535E-6	-16.413039
1.54858E-6	-16.3865
1.548625E-6	-16.411138
1.54867E-6	-16.815193
1.548715E-6	-18.800846
1.54876E-6	-23.72327
1.548805E-6	-32.499547
1.54885E-6	-38.626459
1.548895E-6	-40.038825
1.54894E-6	-40.332483
1.548985E-6	-40.387688
1.54903E-6	-40.408155
1.549075E-6	-40.353633
1.54912E-6	-40.002172
1.549165E-6	-39.215432
1.54921E-6	-38.544928
1.549255E-6	-38.303256
1.5493E-6	-38.233301
1.549345E-6	-38.241984
1.54939E-6	-38.236193
1.549435E-6	-38.247782
1.54948E-6	-38.303256
1.549525E-6	-38.645493
1.54957E-6	-39.400581
1.549615E-6	-40.105502
1.54966E-6	-40.414839
1.549705E-6	-40.476435
1.54975E-6	-40.471107
1.549795E-6	-40.436394
1.54984E-6	-40.315171
1.549885E-6	-39.215432
1.54993E-6	-29.625735
1.549975E-6	-21.11259
1.55002E-6	-17.736579
1.550065E-6	-16.657474
1.55011E-6	-16.464684
1.550155E-6	-16.445485
1.5502E-6	-16.432095
1.550245E-6	-16.507225
1.55029E-6	-17.260732
1.550335E-6	-19.952488
1.55038E-6	-26.287474
1.550425E-6	-35.422695
1.55047E-6	-39.476909
1.550515E-6	-40.291884
1.55056E-6	-40.443122
1.550605E-6	-40.479829
1.55065E-6	-40.490027
1.550695E-6	-40.387688
1.55074E-6	-39.825493
1.550785E-6	-38.985966
1.55083E-6	-38.467951
1.550875E-6	-38.31208
1.55092E-6	-38.297383
1.550965E-6	-38.306195
1.55101E-6	-38.297383
1.551055E-6	-38.297383
1.5511E-6	-38.404328
1.551145E-6	-38.924509
1.55119E-6	-39.755143
1.551235E-6	-40.372993
1.55128E-6	-40.548762
1.551325E-6	-40.569509
1.55137E-6	-40.538426
1.551415E-6	-40.512937
1.55146E-6	-40.239712
1.551505E-6	-37.155693
1.55155E-6	-25.534628
1.551595E-6	-19.755143
1.55164E-6	-17.295541
1.551685E-6	-16.708056
1.55173E-6	-16.621416
1.551775E-6	-16.585655
1.55182E-6	-16.577748
1.551865E-6	-16.755118
1.55191E-6	-18.181564
1.551955E-6	-21.959969
1.552E-6	-29.523358
1.552045E-6	-37.77804
1.55209E-6	-40.034008
1.552135E-6	-40.477889
1.55218E-6	-40.535477
1.552225E-6	-40.598821
1.55227E-6	-40.592843
1.552315E-6	-40.339522
1.55236E-6	-39.586073
1.552405E-6	-38.78112
1.55245E-6	-38.389316
1.552495E-6	-38.309136
1.55254E-6	-38.329782
1.552585E-6	-38.323873
1.55263E-6	-38.326827
1.552675E-6	-38.341624
1.55272E-6	-38.554258
1.552765E-6	-39.237237
1.55281E-6	-40.081097
1.552855E-6	-40.55616
1.5529E-6	-40.636371
1.552945E-6	-40.657541
1.55299E-6	-40.646943
1.553035E-6	-40.571985
1.55308E-6	-40.062112
1.553125E-6	-33.713046
1.55317E-6	-23.228495
1.553215E-6	-18.804142
1.55326E-6	-17.059749
1.553305E-6	-16.712128
1.55335E-6	-16.637404
1.553395E-6	-16.585655
1.55344E-6	-16.593576
1.553485E-6	-16.985359
1.55353E-6	-18.972234
1.553575E-6	-23.629107
1.55362E-6	-32.080989
1.553665E-6	-38.658229
1.55371E-6	-40.264104
1.553755E-6	-40.586377
1.5538E-6	-40.667152
1.553845E-6	-40.683896
1.55389E-6	-40.645431
1.553935E-6	-40.25903
1.55398E-6	-39.381707
1.554025E-6	-38.661419
1.55407E-6	-38.395315
1.554115E-6	-38.341624
1.55416E-6	-38.344589
1.554205E-6	-38.33866
1.55425E-6	-38.326827
1.554295E-6	-38.383326
1.55434E-6	-38.703101
1.554385E-6	-39.503944
1.55443E-6	-40.328734
1.554475E-6	-40.683896
1.55452E-6	-40.76031
1.554565E-6	-40.766005
1.55461E-6	-40.771708
1.554655E-6	-40.656531
1.5547E-6	-39.788107
1.554745E-6	-31.241288
1.55479E-6	-22.119024
1.554835E-6	-18.471004
1.55488E-6	-17.164726
1.554925E-6	-16.88458
1.55497E-6	-16.804776
1.555015E-6	-16.798537
1.55506E-6	-16.806857
1.555105E-6	-17.304871
1.55515E-6	-19.629721
1.555195E-6	-25.217222
1.55524E-6	-34.170281
1.555285E-6	-39.427144
1.55533E-6	-40.503661
1.555375E-6	-40.744816
1.55542E-6	-40.789381
1.555465E-6	-40.800855
1.55551E-6	-40.711946
1.555555E-6	-40.201331
1.5556E-6	-39.284862
1.555645E-6	-38.629625
1.55569E-6	-38.395315
1.555735E-6	-38.341624
1.55578E-6	-38.350526
1.555825E-6	-38.344589
1.55587E-6	-38.356471
1.555915E-6	-38.434508
1.55596E-6	-38.837244
1.556005E-6	-39.706162
1.55605E-6	-40.500736
1.556095E-6	-40.803467
1.55614E-6	-40.854453
1.556185E-6	-40.882566
1.55623E-6	-40.849169
1.556275E-6	-40.665633
1.55632E-6	-39.321855
1.556365E-6	-29.366666
1.55641E-6	-21.273776
1.556455E-6	-17.931741
1.5565E-6	-16.965879
1.556545E-6	-16.744843
1.55659E-6	-16.712128
1.556635E-6	-16.73869
1.55668E-6	-16.777807
1.556725E-6	-17.394516
1.55677E-6	-19.850597
1.556815E-6	-26.129663
1.55686E-6	-34.967542
1.556905E-6	-39.677843
1.55695E-6	-40.630341
1.556995E-6	-40.836513
1.55704E-6	-40.887358
1.557085E-6	-40.899629
1.55713E-6	-40.791465
1.557175E-6	-40.22505
1.55722E-6	-39.295927
1.557265E-6	-38.680607
1.55731E-6	-38.471004
1.557355E-6	-38.44664
1.5574E-6	-38.44664
1.557445E-6	-38.467951
1.55749E-6	-38.467951
1.557535E-6	-38.566729
1.55758E-6	-39.010104
1.557625E-6	-39.888526
1.55767E-6	-40.650977
1.557715E-6	-40.94312
1.55776E-6	-40.978339
1.557805E-6	-40.972902
1.55785E-6	-40.954467
1.557895E-6	-40.778976
1.55794E-6	-39.277501
1.557985E-6	-28.774565
1.55803E-6	-21.025929
1.558075E-6	-17.9129
1.55812E-6	-16.918626
1.558165E-6	-16.74074
1.55821E-6	-16.728455
1.558255E-6	-16.753061
1.5583E-6	-16.813107
1.558345E-6	-17.542406
1.55839E-6	-20.169604
1.558435E-6	-26.447401
1.55848E-6	-35.428754
1.558525E-6	-39.850597
1.55857E-6	-40.780535
1.558615E-6	-40.970186
1.55866E-6	-41.011103
1.558705E-6	-41.02923
1.55875E-6	-40.952304
1.558795E-6	-40.369208
1.55884E-6	-39.480761
1.558885E-6	-38.887375
1.55893E-6	-38.699881
1.558975E-6	-38.677403
1.55902E-6	-38.706324
1.559065E-6	-38.706324
1.55911E-6	-38.722475
1.559155E-6	-38.794261
1.5592E-6	-39.237237
1.559245E-6	-40.072698
1.55929E-6	-40.835987
1.559335E-6	-41.081282
1.55938E-6	-41.123264
1.559425E-6	-41.135657
1.55947E-6	-41.110907
1.559515E-6	-40.968557
1.55956E-6	-39.661743
1.559605E-6	-29.75104
1.55965E-6	-21.609621
1.559695E-6	-18.282735
1.55974E-6	-17.205612
1.559785E-6	-17.057543
1.55983E-6	-17.081873
1.559875E-6	-17.146678
1.55992E-6	-17.2262
1.559965E-6	-17.988761
1.56001E-6	-20.669685
1.560055E-6	-27.191941
1.5601E-6	-36.06074
1.560145E-6	-40.153377
1.56019E-6	-40.990324
1.560235E-6	-41.152046
1.56028E-6	-41.218805
1.560325E-6	-41.23205
1.56037E-6	-41.152046
1.560415E-6	-40.639892
1.56046E-6	-39.804683
1.560505E-6	-39.24453
1.56055E-6	-39.076303
1.560595E-6	-39.069287
1.56064E-6	-39.090369
1.560685E-6	-39.065783
1.56073E-6	-39.08333
1.560775E-6	-39.179331
1.56082E-6	-39.562449
1.560865E-6	-40.346572
1.56091E-6	-41.036943
1.560955E-6	-41.26912
1.561E-6	-41.296546
1.561045E-6	-41.296546
1.56109E-6	-41.290112
1.561135E-6	-41.148085
1.56118E-6	-40.091286
1.561225E-6	-30.485653
1.56127E-6	-21.826991
1.561315E-6	-18.344589
1.56136E-6	-17.207895
1.561405E-6	-17.031155
1.56145E-6	-17.059749
1.561495E-6	-17.126462
1.56154E-6	-17.205612
1.561585E-6	-17.846268
1.56163E-6	-20.308638
1.561675E-6	-26.322715
1.56172E-6	-35.425723
1.561765E-6	-40.092173
1.56181E-6	-41.082953
1.561855E-6	-41.292451
1.5619E-6	-41.337127
1.561945E-6	-41.362609
1.56199E-6	-41.311793
1.562035E-6	-40.958256
1.56208E-6	-40.258108
1.562125E-6	-39.734667
1.56217E-6	-39.531148
1.562215E-6	-39.500071
1.56226E-6	-39.496202
1.562305E-6	-39.503944
1.56235E-6	-39.527251
1.562395E-6	-39.578184
1.56244E-6	-39.863203
1.562485E-6	-40.463853
1.56253E-6	-41.092996
1.562575E-6	-41.354296
1.56262E-6	-41.406215
1.562665E-6	-41.432107
1.56271E-6	-41.419443
1.562755E-6	-41.341856
1.5628E-6	-40.674248
1.562845E-6	-33.223018
1.56289E-6	-22.920043
1.562935E-6	-18.771291
1.56298E-6	-17.23768
1.563025E-6	-16.987529
1.56307E-6	-17.024583
1.563115E-6	-17.117508
1.56316E-6	-17.212464
1.563205E-6	-17.659892
1.56325E-6	-19.698052
1.563295E-6	-24.713404
1.56334E-6	-33.405592
1.563385E-6	-39.629721
1.56343E-6	-41.072934
1.563475E-6	-41.365582
1.56352E-6	-41.420045
1.563565E-6	-41.44602
1.56361E-6	-41.44602
1.563655E-6	-41.228591
1.5637E-6	-40.710412
1.563745E-6	-40.193604
1.56379E-6	-39.978339
1.563835E-6	-39.922522
1.56388E-6	-39.918258
1.563925E-6	-39.956786
1.56397E-6	-39.965395
1.564015E-6	-40.006084
1.56406E-6	-40.169604
1.564105E-6	-40.634863
1.56415E-6	-41.193007
1.564195E-6	-41.461802
1.56424E-6	-41.51503
1.564285E-6	-41.544059
1.56433E-6	-41.517493
1.564375E-6	-41.471542
1.56442E-6	-41.115397
1.564465E-6	-36.940041
1.56451E-6	-25.252012
1.564555E-6	-19.767475
1.5646E-6	-17.629592
1.564645E-6	-17.219327
1.56469E-6	-17.246886
1.564735E-6	-17.337683
1.56478E-6	-17.449688
1.564825E-6	-17.78325
1.56487E-6	-19.28118
1.564915E-6	-23.320803
1.56496E-6	-31.156012
1.565005E-6	-38.979095
1.56505E-6	-41.07071
1.565095E-6	-41.499054
1.56514E-6	-41.586405
1.565185E-6	-41.600194
1.56523E-6	-41.62033
1.565275E-6	-41.545919
1.56532E-6	-41.215931
1.565365E-6	-40.75514
1.56541E-6	-40.499274
1.565455E-6	-40.436394
1.5655E-6	-40.451788
1.565545E-6	-40.483711
1.56559E-6	-40.493918
1.565635E-6	-40.510005
1.56568E-6	-40.600816
1.565725E-6	-40.895891
1.56577E-6	-41.352517
1.565815E-6	-41.651979
1.56586E-6	-41.735365
1.565905E-6	-41.756138
1.56595E-6	-41.742494
1.565995E-6	-41.707606
1.56604E-6	-41.510108
1.566085E-6	-39.75104
1.56613E-6	-29.034376
1.566175E-6	-21.225135
1.56622E-6	-18.210231
1.566265E-6	-17.356545
1.56631E-6	-17.33298
1.566355E-6	-17.442452
1.5664E-6	-17.549811
1.566445E-6	-17.759852
1.56649E-6	-18.787685
1.566535E-6	-21.888273
1.56658E-6	-29.003194
1.566625E-6	-37.46662
1.56667E-6	-40.989233
1.566715E-6	-41.651979
1.56676E-6	-41.805877
1.566805E-6	-41.827653
1.56685E-6	-41.856192
1.566895E-6	-41.863523
1.56694E-6	-41.67555
1.566985E-6	-41.329452
1.56703E-6	-41.074602
1.567075E-6	-41.002889
1.56712E-6	-41.027029
1.567165E-6	-41.039149
1.56721E-6	-41.068488
1.567255E-6	-41.092996
1.5673E-6	-41.141866
1.567345E-6	-41.322969
1.56739E-6	-41.69668
1.567435E-6	-41.980478
1.56748E-6	-42.123979
1.567525E-6	-42.169544
1.56757E-6	-42.209088
1.567615E-6	-42.232988
1.56766E-6	-42.287801
1.567705E-6	-42.312879
1.56775E-6	-42.21704
1.567795E-6	-41.980478
1.56784E-6	-41.769825
1.567885E-6	-41.754837
1.56793E-6	-41.797985
1.567975E-6	-41.887602
1.56802E-6	-41.960652
1.568065E-6	-42.02871
1.56811E-6	-42.150263
1.568155E-6	-42.364971
1.5682E-6	-42.711594
1.568245E-6	-43.06361
1.56829E-6	-43.291977
1.568335E-6	-43.417023
1.56838E-6	-43.549709
1.568425E-6	-43.693688
1.56847E-6	-43.846813
1.568515E-6	-43.99136
1.56856E-6	-44.067139
1.568605E-6	-44.004444
1.56865E-6	-43.930815
1.568695E-6	-44.007721
1.56874E-6	-44.17823
1.568785E-6	-44.377071
1.56883E-6	-44.566771
1.568875E-6	-44.762535
1.56892E-6	-44.989407
1.568965E-6	-45.275361
1.56901E-6	-45.679933
1.569055E-6	-46.131445
1.5691E-6	-46.466609
1.569145E-6	-46.701955
1.56919E-6	-46.940041
1.569235E-6	-47.162466
1.56928E-6	-47.408842
1.569325E-6	-47.642191
1.56937E-6	-47.830428
1.569415E-6	-47.899492
1.56946E-6	-47.929045
1.569505E-6	-48.06041
1.56955E-6	-48.273971
1.569595E-6	-48.501653
1.56964E-6	-48.71924
1.569685E-6	-48.975663
1.56973E-6	-49.193735
1.569775E-6	-49.457701
1.56982E-6	-49.808837
1.569865E-6	-50.194058
1.56991E-6	-50.495865
1.569955E-6	-50.740179
1.57E-6	-50.9442
