Wavelength (nm)	Power (dBm)
1.525E-6	-66.017127
1.525045E-6	-66.046736
1.52509E-6	-66.802695
1.525135E-6	-68.972234
1.52518E-6	-72.536772
1.525225E-6	-76.480105
1.52527E-6	-77.589518
1.525315E-6	-78.554258
1.52536E-6	-77.772835
1.525405E-6	-77.567139
1.52545E-6	-75.581478
1.525495E-6	-70.347512
1.52554E-6	-66.599527
1.525585E-6	-65.25638
1.52563E-6	-64.793855
1.525675E-6	-64.605475
1.52572E-6	-64.480623
1.525765E-6	-64.271284
1.52581E-6	-64.197595
1.525855E-6	-64.717262
1.5259E-6	-66.601512
1.525945E-6	-69.854795
1.52599E-6	-74.113922
1.526035E-6	-77.488487
1.52608E-6	-77.454519
1.526125E-6	-77.728849
1.52617E-6	-78.096683
1.526215E-6	-75.760991
1.52626E-6	-70.379149
1.526305E-6	-65.840256
1.52635E-6	-63.972891
1.526395E-6	-63.411304
1.52644E-6	-63.263341
1.526485E-6	-63.152444
1.52653E-6	-63.071531
1.526575E-6	-63.041682
1.52662E-6	-63.303113
1.526665E-6	-64.691602
1.52671E-6	-68.119156
1.526755E-6	-72.533658
1.5268E-6	-76.356366
1.526845E-6	-77.302536
1.52689E-6	-77.838341
1.526935E-6	-77.411234
1.52698E-6	-76.38839
1.527025E-6	-70.924274
1.52707E-6	-65.343198
1.527115E-6	-63.059215
1.52716E-6	-62.263598
1.527205E-6	-62.023171
1.52725E-6	-61.933453
1.527295E-6	-61.890286
1.52734E-6	-61.852199
1.527385E-6	-61.986649
1.52743E-6	-63.038184
1.527475E-6	-65.907433
1.52752E-6	-70.244303
1.527565E-6	-75.041782
1.52761E-6	-76.781945
1.527655E-6	-77.18285
1.5277E-6	-77.814645
1.527745E-6	-76.734593
1.52779E-6	-71.823685
1.527835E-6	-65.519123
1.52788E-6	-62.53833
1.527925E-6	-61.398417
1.52797E-6	-61.081282
1.528015E-6	-61.000701
1.52806E-6	-60.94312
1.528105E-6	-60.917295
1.52815E-6	-60.94852
1.528195E-6	-61.6469
1.52824E-6	-63.846813
1.528285E-6	-68.486301
1.52833E-6	-73.407495
1.528375E-6	-76.639407
1.52842E-6	-77.212464
1.528465E-6	-77.304871
1.52851E-6	-76.985359
1.528555E-6	-73.464016
1.5286E-6	-66.302277
1.528645E-6	-62.410881
1.52869E-6	-60.789381
1.528735E-6	-60.347983
1.52878E-6	-60.265027
1.528825E-6	-60.234208
1.52887E-6	-60.180456
1.528915E-6	-60.147532
1.52896E-6	-60.540885
1.529005E-6	-62.24244
1.52905E-6	-65.999804
1.529095E-6	-71.177032
1.52914E-6	-75.70894
1.529185E-6	-77.535014
1.52923E-6	-77.178312
1.529275E-6	-77.066374
1.52932E-6	-75.045944
1.529365E-6	-68.138916
1.52941E-6	-62.810004
1.529455E-6	-60.566044
1.5295E-6	-59.833845
1.529545E-6	-59.669786
1.52959E-6	-59.629721
1.529635E-6	-59.593977
1.52968E-6	-59.550685
1.529725E-6	-59.779843
1.52977E-6	-60.922126
1.529815E-6	-63.9545
1.52986E-6	-69.277501
1.529905E-6	-74.265482
1.52995E-6	-76.771607
1.529995E-6	-76.974526
1.53004E-6	-77.512913
1.530085E-6	-76.5267
1.53013E-6	-70.428718
1.530175E-6	-63.77268
1.53022E-6	-60.76238
1.530265E-6	-59.617774
1.53031E-6	-59.351678
1.530355E-6	-59.28118
1.5304E-6	-59.24453
1.530445E-6	-59.222688
1.53049E-6	-59.277501
1.530535E-6	-60.023515
1.53058E-6	-62.287801
1.530625E-6	-66.844495
1.53067E-6	-72.335128
1.530715E-6	-76.230582
1.53076E-6	-77.325936
1.530805E-6	-77.295541
1.53085E-6	-76.955095
1.530895E-6	-72.772016
1.53094E-6	-65.141367
1.530985E-6	-61.274941
1.53103E-6	-59.605859
1.531075E-6	-59.129288
1.53112E-6	-59.058784
1.531165E-6	-59.013563
1.53121E-6	-58.958544
1.531255E-6	-58.996295
1.5313E-6	-59.404366
1.531345E-6	-61.063492
1.53139E-6	-64.826721
1.531435E-6	-69.880069
1.53148E-6	-75.045944
1.531525E-6	-77.437635
1.53157E-6	-77.046529
1.531615E-6	-77.363639
1.53166E-6	-75.061239
1.531705E-6	-67.377863
1.53175E-6	-62.347041
1.531795E-6	-59.931063
1.53184E-6	-59.186527
1.531885E-6	-59.062282
1.53193E-6	-59.076303
1.531975E-6	-59.072794
1.53202E-6	-59.069287
1.532065E-6	-59.248181
1.53211E-6	-60.2512
1.532155E-6	-63.056581
1.5322E-6	-68.207355
1.532245E-6	-73.592205
1.53229E-6	-76.38839
1.532335E-6	-77.113037
1.53238E-6	-76.880343
1.532425E-6	-76.35449
1.53247E-6	-70.995782
1.532515E-6	-64.112802
1.53256E-6	-60.748427
1.532605E-6	-59.488475
1.53265E-6	-59.139963
1.532695E-6	-59.111554
1.53274E-6	-59.136402
1.532785E-6	-59.175737
1.53283E-6	-59.262816
1.532875E-6	-59.888526
1.53292E-6	-61.951793
1.532965E-6	-66.356366
1.53301E-6	-71.578278
1.533055E-6	-75.961934
1.5331E-6	-77.18285
1.533145E-6	-77.066374
1.53319E-6	-77.318903
1.533235E-6	-74.282912
1.53328E-6	-66.708056
1.533325E-6	-62.265793
1.53337E-6	-60.314237
1.533415E-6	-59.722428
1.53346E-6	-59.617774
1.533505E-6	-59.645703
1.53355E-6	-59.714287
1.533595E-6	-59.812995
1.53364E-6	-60.071815
1.533685E-6	-61.397219
1.53373E-6	-64.556839
1.533775E-6	-69.233596
1.53382E-6	-74.956651
1.533865E-6	-76.899443
1.53391E-6	-76.981023
1.533955E-6	-76.861328
1.534E-6	-76.108339
1.534045E-6	-70.742239
1.53409E-6	-64.519793
1.534135E-6	-61.605848
1.53418E-6	-60.562088
1.534225E-6	-60.362594
1.53427E-6	-60.364483
1.534315E-6	-60.404816
1.53436E-6	-60.440238
1.534405E-6	-60.5611
1.53445E-6	-61.266794
1.534495E-6	-63.439977
1.53454E-6	-67.872798
1.534585E-6	-72.992963
1.53463E-6	-76.744843
1.534675E-6	-77.119745
1.53472E-6	-76.96372
1.534765E-6	-76.965879
1.53481E-6	-74.17255
1.534855E-6	-67.274622
1.5349E-6	-63.263341
1.534945E-6	-61.565803
1.53499E-6	-61.124952
1.535035E-6	-61.066822
1.53508E-6	-61.100823
1.535125E-6	-61.147519
1.53517E-6	-61.18159
1.535215E-6	-61.488028
1.53526E-6	-62.914941
1.535305E-6	-66.174427
1.53535E-6	-71.086856
1.535395E-6	-75.659104
1.53544E-6	-77.180581
1.535485E-6	-77.033348
1.53553E-6	-76.815193
1.535575E-6	-76.237881
1.53562E-6	-71.113713
1.535665E-6	-65.573635
1.53571E-6	-62.881928
1.535755E-6	-61.90171
1.5358E-6	-61.764606
1.535845E-6	-61.753536
1.53589E-6	-61.816421
1.535935E-6	-61.822364
1.53598E-6	-61.973631
1.536025E-6	-62.710784
1.53607E-6	-65.087784
1.536115E-6	-69.457701
1.53616E-6	-74.143137
1.536205E-6	-76.615435
1.53625E-6	-77.135435
1.536295E-6	-77.146678
1.53634E-6	-77.219327
1.536385E-6	-74.574235
1.53643E-6	-68.728952
1.536475E-6	-64.449056
1.53652E-6	-62.80503
1.536565E-6	-62.381473
1.53661E-6	-62.323248
1.536655E-6	-62.357491
1.5367E-6	-62.373965
1.536745E-6	-62.401056
1.53679E-6	-62.738435
1.536835E-6	-64.157819
1.53688E-6	-67.394516
1.536925E-6	-71.988708
1.53697E-6	-76.066003
1.537015E-6	-77.567139
1.53706E-6	-76.920763
1.537105E-6	-77.288557
1.53715E-6	-76.322715
1.537195E-6	-71.985963
1.53724E-6	-66.434006
1.537285E-6	-63.824755
1.53733E-6	-62.861736
1.537375E-6	-62.716462
1.53742E-6	-62.704303
1.537465E-6	-62.723774
1.53751E-6	-62.705922
1.537555E-6	-62.814983
1.5376E-6	-63.540867
1.537645E-6	-65.820304
1.53769E-6	-69.669786
1.537735E-6	-74.435769
1.53778E-6	-76.981023
1.537825E-6	-77.135435
1.53787E-6	-76.35074
1.537915E-6	-76.825635
1.53796E-6	-74.940365
1.538005E-6	-69.566377
1.53805E-6	-65.172693
1.538095E-6	-63.390397
1.53814E-6	-62.961929
1.538185E-6	-62.886146
1.53823E-6	-62.881085
1.538275E-6	-62.876029
1.53832E-6	-62.87182
1.538365E-6	-63.101586
1.53841E-6	-64.463597
1.538455E-6	-67.664962
1.5385E-6	-71.985963
1.538545E-6	-75.948245
1.53859E-6	-76.829819
1.538635E-6	-76.907958
1.53868E-6	-76.863437
1.538725E-6	-76.665527
1.53877E-6	-72.577463
1.538815E-6	-66.804776
1.53886E-6	-64.160082
1.538905E-6	-63.118472
1.53895E-6	-62.886146
1.538995E-6	-62.837462
1.53904E-6	-62.826624
1.539085E-6	-62.800889
1.53913E-6	-62.9073
1.539175E-6	-63.520305
1.53922E-6	-65.553308
1.539265E-6	-69.669786
1.53931E-6	-73.988095
1.539355E-6	-76.726411
1.5394E-6	-76.912222
1.539445E-6	-76.944337
1.53949E-6	-77.233085
1.539535E-6	-75.320961
1.53958E-6	-69.722428
1.539625E-6	-65.172693
1.53967E-6	-63.339503
1.539715E-6	-62.790143
1.53976E-6	-62.734358
1.539805E-6	-62.650402
1.53985E-6	-62.633645
1.539895E-6	-62.656803
1.53994E-6	-62.869297
1.539985E-6	-64.047243
1.54003E-6	-67.004927
1.540075E-6	-71.288359
1.54012E-6	-75.746288
1.540165E-6	-76.647427
1.54021E-6	-76.767479
1.540255E-6	-76.703988
1.5403E-6	-76.174427
1.540345E-6	-72.946495
1.54039E-6	-67.028963
1.540435E-6	-63.975059
1.54048E-6	-62.810833
1.540525E-6	-62.507276
1.54057E-6	-62.438205
1.540615E-6	-62.401811
1.54066E-6	-62.388995
1.540705E-6	-62.424521
1.54075E-6	-62.94992
1.540795E-6	-64.789927
1.54084E-6	-68.526329
1.540885E-6	-73.34419
1.54093E-6	-76.550186
1.540975E-6	-76.942188
1.54102E-6	-77.108572
1.541065E-6	-76.899443
1.54111E-6	-75.774102
1.541155E-6	-70.028321
1.5412E-6	-65.182708
1.541245E-6	-63.06361
1.54129E-6	-62.333641
1.541335E-6	-62.14955
1.54138E-6	-62.111249
1.541425E-6	-62.107014
1.54147E-6	-62.095741
1.541515E-6	-62.247537
1.54156E-6	-63.147959
1.541605E-6	-65.675117
1.54165E-6	-69.767475
1.541695E-6	-74.193031
1.54174E-6	-74.956651
1.541785E-6	-74.120647
1.54183E-6	-71.584528
1.541875E-6	-65.040396
1.54192E-6	-54.745664
1.541965E-6	-38.407337
1.54201E-6	-31.942274
1.542055E-6	-29.100949
1.5421E-6	-28.262312
1.542145E-6	-28.096683
1.54219E-6	-28.046539
1.542235E-6	-28.021683
1.54228E-6	-28.195874
1.542325E-6	-29.54677
1.54237E-6	-33.467875
1.542415E-6	-41.380476
1.54246E-6	-52.623304
1.542505E-6	-61.680663
1.54255E-6	-67.144427
1.542595E-6	-71.405014
1.54264E-6	-73.778896
1.542685E-6	-74.626847
1.54273E-6	-70.993598
1.542775E-6	-65.587763
1.54282E-6	-62.938799
1.542865E-6	-61.933453
1.54291E-6	-61.741846
1.542955E-6	-61.708249
1.543E-6	-61.703104
1.543045E-6	-61.724369
1.54309E-6	-61.755487
1.543135E-6	-62.368716
1.54318E-6	-64.491604
1.543225E-6	-68.642315
1.54327E-6	-72.882771
1.543315E-6	-75.00863
1.54336E-6	-74.423725
1.543405E-6	-72.591638
1.54345E-6	-66.90157
1.543495E-6	-59.027427
1.54354E-6	-41.721786
1.543585E-6	-33.511523
1.54363E-6	-29.812995
1.543675E-6	-28.437538
1.54372E-6	-28.210231
1.543765E-6	-28.141746
1.54381E-6	-28.116341
1.543855E-6	-28.173001
1.5439E-6	-29.020489
1.543945E-6	-32.074682
1.54399E-6	-39.229957
1.544035E-6	-49.694003
1.54408E-6	-59.461536
1.544125E-6	-65.431787
1.54417E-6	-70.235125
1.544215E-6	-73.411304
1.54426E-6	-74.312118
1.544305E-6	-72.407856
1.54435E-6	-66.677636
1.544395E-6	-63.244049
1.54444E-6	-61.815761
1.544485E-6	-61.45694
1.54453E-6	-61.405615
1.544575E-6	-61.409819
1.54462E-6	-61.411621
1.544665E-6	-61.413425
1.54471E-6	-61.769172
1.544755E-6	-63.323603
1.5448E-6	-66.852903
1.544845E-6	-71.2056
1.54489E-6	-74.544455
1.544935E-6	-74.90932
1.54498E-6	-73.359224
1.545025E-6	-69.453869
1.54507E-6	-62.150976
1.545115E-6	-48.167302
1.54516E-6	-35.590909
1.545205E-6	-30.630341
1.54525E-6	-28.620133
1.545295E-6	-28.173001
1.54534E-6	-28.105097
1.545385E-6	-28.068754
1.54543E-6	-28.093882
1.545475E-6	-28.51089
1.54552E-6	-30.6778
1.545565E-6	-35.912514
1.54561E-6	-45.573635
1.545655E-6	-56.647427
1.5457E-6	-63.03731
1.545745E-6	-69.0309
1.54579E-6	-72.416938
1.545835E-6	-74.025242
1.54588E-6	-74.016473
1.545925E-6	-69.118639
1.54597E-6	-64.166878
1.546015E-6	-62.053726
1.54606E-6	-61.402015
1.546105E-6	-61.288943
1.54615E-6	-61.264469
1.546195E-6	-61.239554
1.54624E-6	-61.28077
1.546285E-6	-61.450263
1.54633E-6	-62.38448
1.546375E-6	-64.986668
1.54642E-6	-69.609827
1.546465E-6	-73.550693
1.54651E-6	-75.033471
1.546555E-6	-73.968556
1.5466E-6	-71.801929
1.546645E-6	-65.410601
1.54669E-6	-55.368539
1.546735E-6	-39.108016
1.54678E-6	-32.330669
1.546825E-6	-29.303319
1.54687E-6	-28.347557
1.546915E-6	-28.187282
1.54696E-6	-28.147412
1.547005E-6	-28.150248
1.54705E-6	-28.31208
1.547095E-6	-29.515582
1.54714E-6	-33.094495
1.547185E-6	-40.493431
1.54723E-6	-51.782245
1.547275E-6	-60.91247
1.54732E-6	-66.734593
1.547365E-6	-71.011652
1.54741E-6	-73.713046
1.547455E-6	-74.715976
1.5475E-6	-71.531065
1.547545E-6	-65.697636
1.54759E-6	-62.727842
1.547635E-6	-61.511953
1.54768E-6	-61.228591
1.547725E-6	-61.182731
1.54777E-6	-61.207894
1.547815E-6	-61.236089
1.54786E-6	-61.312968
1.547905E-6	-61.758742
1.54795E-6	-63.470771
1.547995E-6	-67.121983
1.54804E-6	-71.561446
1.548085E-6	-74.451476
1.54813E-6	-74.920093
1.548175E-6	-73.134531
1.54822E-6	-69.010104
1.548265E-6	-61.370342
1.54831E-6	-47.079656
1.548355E-6	-35.104634
1.5484E-6	-30.321246
1.548445E-6	-28.526329
1.54849E-6	-28.127614
1.548535E-6	-28.043771
1.54858E-6	-28.04931
1.548625E-6	-28.079904
1.54867E-6	-28.548036
1.548715E-6	-30.802945
1.54876E-6	-36.311555
1.548805E-6	-46.101254
1.54885E-6	-57.095202
1.548895E-6	-63.365818
1.54894E-6	-69.182927
1.548985E-6	-72.48952
1.54903E-6	-74.647059
1.549075E-6	-73.696738
1.54912E-6	-68.958544
1.549165E-6	-64.115042
1.54921E-6	-62.053029
1.549255E-6	-61.351924
1.5493E-6	-61.215357
1.549345E-6	-61.209615
1.54939E-6	-61.21823
1.549435E-6	-61.229744
1.54948E-6	-61.337127
1.549525E-6	-62.224282
1.54957E-6	-64.758636
1.549615E-6	-69.34047
1.54966E-6	-73.383766
1.549705E-6	-74.940365
1.54975E-6	-74.152166
1.549795E-6	-72.097852
1.54984E-6	-65.603516
1.549885E-6	-56.550186
1.54993E-6	-39.995659
1.549975E-6	-32.573534
1.55002E-6	-29.248181
1.550065E-6	-28.204482
1.55011E-6	-28.04931
1.550155E-6	-28.01893
1.5502E-6	-28.01893
1.550245E-6	-28.06041
1.55029E-6	-28.931295
1.550335E-6	-31.966795
1.55038E-6	-39.310724
1.550425E-6	-50.011306
1.55047E-6	-59.625735
1.550515E-6	-65.477534
1.55056E-6	-70.378201
1.550605E-6	-73.220282
1.55065E-6	-74.330913
1.550695E-6	-72.232262
1.55074E-6	-66.367642
1.550785E-6	-62.997291
1.55083E-6	-61.522423
1.550875E-6	-61.23032
1.55092E-6	-61.099704
1.550965E-6	-61.110347
1.55101E-6	-61.080168
1.551055E-6	-61.111468
1.5511E-6	-61.402015
1.551145E-6	-62.80503
1.55119E-6	-66.108339
1.551235E-6	-70.513915
1.55128E-6	-74.459957
1.551325E-6	-74.964817
1.55137E-6	-73.754085
1.551415E-6	-70.524683
1.55146E-6	-63.569423
1.551505E-6	-51.498441
1.55155E-6	-36.794383
1.551595E-6	-31.325914
1.55164E-6	-28.934691
1.551685E-6	-28.303256
1.55173E-6	-28.227522
1.551775E-6	-28.178708
1.55182E-6	-28.16161
1.551865E-6	-28.374356
1.55191E-6	-29.943906
1.551955E-6	-34.185055
1.552E-6	-42.546909
1.552045E-6	-54.202164
1.55209E-6	-62.253371
1.552135E-6	-67.762445
1.55218E-6	-71.65325
1.552225E-6	-73.831046
1.55227E-6	-74.339162
1.552315E-6	-70.575951
1.55236E-6	-64.825402
1.552405E-6	-62.157394
1.55245E-6	-61.178741
1.552495E-6	-60.979971
1.55254E-6	-60.938266
1.552585E-6	-60.965302
1.55263E-6	-60.94474
1.552675E-6	-60.957715
1.55272E-6	-61.519341
1.552765E-6	-63.530085
1.55281E-6	-67.358908
1.552855E-6	-72.134615
1.5529E-6	-74.571746
1.552945E-6	-74.750849
1.55299E-6	-73.064489
1.553035E-6	-68.544928
1.55308E-6	-60.945819
1.553125E-6	-46.322715
1.55317E-6	-34.616777
1.553215E-6	-30.091729
1.55326E-6	-28.425432
1.553305E-6	-28.065971
1.55335E-6	-28.005191
1.553395E-6	-27.966951
1.55344E-6	-27.966951
1.553485E-6	-28.45576
1.55353E-6	-30.663609
1.553575E-6	-35.967079
1.55362E-6	-45.657505
1.553665E-6	-56.395959
1.55371E-6	-62.842473
1.553755E-6	-69.069287
1.5538E-6	-72.344805
1.553845E-6	-73.926522
1.55389E-6	-73.745846
1.553935E-6	-68.626459
1.55398E-6	-63.76544
1.554025E-6	-61.593294
1.55407E-6	-60.940962
1.554115E-6	-60.754623
1.55416E-6	-60.731433
1.554205E-6	-60.751007
1.55425E-6	-60.73812
1.554295E-6	-60.863981
1.55434E-6	-61.658337
1.554385E-6	-64.017568
1.55443E-6	-68.607508
1.554475E-6	-73.248635
1.55452E-6	-75.943122
1.554565E-6	-76.593576
1.55461E-6	-76.661499
1.554655E-6	-76.515004
1.5547E-6	-74.459957
1.554745E-6	-68.285661
1.55479E-6	-63.390397
1.554835E-6	-61.424866
1.55488E-6	-60.785216
1.554925E-6	-60.651987
1.55497E-6	-60.611302
1.555015E-6	-60.59932
1.55506E-6	-60.592346
1.555105E-6	-60.761863
1.55515E-6	-61.669805
1.555195E-6	-64.248122
1.55524E-6	-69.115095
1.555285E-6	-73.559555
1.55533E-6	-76.26904
1.555375E-6	-76.212388
1.55542E-6	-76.434006
1.555465E-6	-76.581699
1.55551E-6	-74.091582
1.555555E-6	-67.119745
1.5556E-6	-63.083881
1.555645E-6	-61.209615
1.55569E-6	-60.680339
1.555735E-6	-60.570004
1.55578E-6	-60.563571
1.555825E-6	-60.569509
1.55587E-6	-60.566044
1.555915E-6	-60.732975
1.55596E-6	-61.704389
1.556005E-6	-64.447846
1.55605E-6	-69.273825
1.556095E-6	-73.936186
1.55614E-6	-76.11366
1.556185E-6	-76.85922
1.55623E-6	-76.755118
1.556275E-6	-76.516951
1.55632E-6	-73.769576
1.556365E-6	-66.792308
1.55641E-6	-62.887835
1.556455E-6	-61.132274
1.5565E-6	-60.619809
1.556545E-6	-60.517338
1.55659E-6	-60.519295
1.556635E-6	-60.518806
1.55668E-6	-60.516849
1.556725E-6	-60.683896
1.55677E-6	-61.710824
1.556815E-6	-64.480623
1.55686E-6	-69.515582
1.556905E-6	-73.861582
1.55695E-6	-76.593576
1.556995E-6	-76.767479
1.55704E-6	-76.546263
1.557085E-6	-76.373291
1.55713E-6	-73.739678
1.557175E-6	-66.569855
1.55722E-6	-62.746602
1.557265E-6	-61.086856
1.55731E-6	-60.621312
1.557355E-6	-60.542853
1.5574E-6	-60.570499
1.557445E-6	-60.567529
1.55749E-6	-60.563571
1.557535E-6	-60.720141
1.55758E-6	-61.84688
1.557625E-6	-64.736607
1.55767E-6	-69.097419
1.557715E-6	-74.265482
1.55776E-6	-76.579723
1.557805E-6	-76.93575
1.55785E-6	-76.493644
1.557895E-6	-76.710091
1.55794E-6	-73.674415
1.557985E-6	-66.66956
1.55803E-6	-62.781894
1.558075E-6	-61.118205
1.55812E-6	-60.622314
1.558165E-6	-60.550241
1.55821E-6	-60.582899
1.558255E-6	-60.572976
1.5583E-6	-60.561594
1.558345E-6	-60.748943
1.55839E-6	-61.879561
1.558435E-6	-64.793855
1.55848E-6	-69.186527
1.558525E-6	-74.329736
1.55857E-6	-76.208759
1.558615E-6	-78.557372
1.55866E-6	-76.726411
1.558705E-6	-75.204247
1.55875E-6	-73.464981
1.558795E-6	-66.697892
1.55884E-6	-62.901367
1.558885E-6	-61.236089
1.55893E-6	-60.803467
1.558975E-6	-60.765487
1.55902E-6	-60.777418
1.559065E-6	-60.790423
1.55911E-6	-60.761863
1.559155E-6	-60.972359
1.5592E-6	-62.055817
1.559245E-6	-64.920093
1.55929E-6	-69.511699
1.559335E-6	-74.502613
1.55938E-6	-76.069515
1.559425E-6	-76.959405
1.55947E-6	-77.020208
1.559515E-6	-76.365761
1.55956E-6	-73.577334
1.559605E-6	-66.844495
1.55965E-6	-63.067128
1.559695E-6	-61.456332
1.55974E-6	-61.023729
1.559785E-6	-60.946899
1.55983E-6	-60.956632
1.559875E-6	-60.972902
1.55992E-6	-61.0122
1.559965E-6	-61.245914
1.56001E-6	-62.34555
1.560055E-6	-65.187007
1.5601E-6	-69.657727
1.560145E-6	-74.521023
1.56019E-6	-76.489771
1.560235E-6	-77.212464
1.56028E-6	-76.842395
1.560325E-6	-76.996219
1.56037E-6	-74.316809
1.560415E-6	-67.435228
1.56046E-6	-63.471737
1.560505E-6	-61.782245
1.56055E-6	-61.341856
1.560595E-6	-61.276106
1.56064E-6	-61.314143
1.560685E-6	-61.283687
1.56073E-6	-61.307683
1.560775E-6	-61.508878
1.56082E-6	-62.571963
1.560865E-6	-65.346171
1.56091E-6	-69.649707
1.560955E-6	-74.512422
1.561E-6	-76.118988
1.561045E-6	-76.882461
1.56109E-6	-77.363639
1.561135E-6	-76.846595
1.56118E-6	-74.719837
1.561225E-6	-68.297383
1.56127E-6	-64.012095
1.561315E-6	-62.24244
1.56136E-6	-61.726954
1.561405E-6	-61.664067
1.56145E-6	-61.655793
1.561495E-6	-61.680023
1.56154E-6	-61.699891
1.561585E-6	-61.888944
1.56163E-6	-62.880241
1.561675E-6	-65.456125
1.56172E-6	-69.542859
1.561765E-6	-74.334447
1.56181E-6	-76.619421
1.561855E-6	-77.101882
1.5619E-6	-76.546263
1.561945E-6	-77.135435
1.56199E-6	-75.456125
1.562035E-6	-69.461536
1.56208E-6	-64.690323
1.562125E-6	-62.776952
1.56217E-6	-62.196827
1.562215E-6	-62.102078
1.56226E-6	-62.09363
1.562305E-6	-62.114781
1.56235E-6	-62.156681
1.562395E-6	-62.310661
1.56244E-6	-63.102473
1.562485E-6	-65.451551
1.56253E-6	-69.132843
1.562575E-6	-74.236586
1.56262E-6	-76.998395
1.562665E-6	-77.189666
1.56271E-6	-77.084092
1.562755E-6	-76.567884
1.5628E-6	-76.499459
1.562845E-6	-70.406247
1.56289E-6	-65.468346
1.562935E-6	-63.373366
1.56298E-6	-62.692985
1.563025E-6	-62.568824
1.56307E-6	-62.564902
1.563115E-6	-62.640021
1.56316E-6	-62.682501
1.563205E-6	-62.782718
1.56325E-6	-63.503731
1.563295E-6	-65.638374
1.56334E-6	-69.292235
1.563385E-6	-74.222785
1.56343E-6	-76.753061
1.563475E-6	-76.959405
1.56352E-6	-76.861328
1.563565E-6	-76.838199
1.56361E-6	-77.13319
1.563655E-6	-71.688984
1.5637E-6	-66.518899
1.563745E-6	-64.163479
1.56379E-6	-63.295686
1.563835E-6	-63.172234
1.56388E-6	-63.147062
1.563925E-6	-63.184874
1.56397E-6	-63.214816
1.564015E-6	-63.303113
1.56406E-6	-63.91795
1.564105E-6	-65.726762
1.56415E-6	-69.125735
1.564195E-6	-74.035129
1.56424E-6	-77.028963
1.564285E-6	-77.004927
1.56433E-6	-77.389752
1.564375E-6	-77.263044
1.56442E-6	-76.561977
1.564465E-6	-72.514244
1.56451E-6	-67.394516
1.564555E-6	-64.817493
1.5646E-6	-63.915809
1.564645E-6	-63.715089
1.56469E-6	-63.702847
1.564735E-6	-63.80385
1.56478E-6	-63.821613
1.564825E-6	-63.902989
1.56487E-6	-64.327383
1.564915E-6	-66.036263
1.56496E-6	-69.531148
1.565005E-6	-73.91367
1.56505E-6	-76.542343
1.565095E-6	-77.233085
1.56514E-6	-77.759852
1.565185E-6	-77.411234
1.56523E-6	-77.382615
1.565275E-6	-74.139756
1.56532E-6	-69.020489
1.565365E-6	-65.702477
1.56541E-6	-64.621809
1.565455E-6	-64.392567
1.5655E-6	-64.381833
1.565545E-6	-64.412914
1.56559E-6	-64.468455
1.565635E-6	-64.530874
1.56568E-6	-64.828041
1.565725E-6	-66.281935
1.56577E-6	-69.574245
1.565815E-6	-73.537924
1.56586E-6	-76.540385
1.565905E-6	-77.715996
1.56595E-6	-78.119156
1.565995E-6	-77.387371
1.56604E-6	-78.380334
1.566085E-6	-75.337257
1.56613E-6	-70.399575
1.566175E-6	-66.726411
1.56622E-6	-65.409092
1.566265E-6	-65.104634
1.56631E-6	-65.048721
1.566355E-6	-65.144205
1.5664E-6	-65.110265
1.566445E-6	-65.130031
1.56649E-6	-65.389519
1.566535E-6	-66.595559
1.56658E-6	-69.519468
1.566625E-6	-73.329208
1.56667E-6	-76.633402
1.566715E-6	-77.130946
1.56676E-6	-77.840982
1.566805E-6	-78.335699
1.56685E-6	-77.956087
1.566895E-6	-76.008457
1.56694E-6	-71.669805
1.566985E-6	-68.01893
1.56703E-6	-66.154674
1.567075E-6	-65.812017
1.56712E-6	-65.702477
1.567165E-6	-65.752817
1.56721E-6	-65.751184
1.567255E-6	-65.807053
1.5673E-6	-65.956795
1.567345E-6	-66.955095
1.56739E-6	-69.389247
1.567435E-6	-73.022477
1.56748E-6	-76.643415
1.567525E-6	-78.007935
1.56757E-6	-78.150248
1.567615E-6	-77.770236
1.56766E-6	-77.670039
1.567705E-6	-77.274622
1.56775E-6	-72.937945
1.567795E-6	-69.161392
1.56784E-6	-67.018021
1.567885E-6	-66.445485
1.56793E-6	-66.422557
1.567975E-6	-66.371407
1.56802E-6	-66.435917
1.568065E-6	-66.478175
1.56811E-6	-66.599527
1.568155E-6	-67.251497
1.5682E-6	-69.28118
1.568245E-6	-72.551596
1.56829E-6	-76.223296
1.568335E-6	-77.843624
1.56838E-6	-77.744323
1.568425E-6	-77.81202
1.56847E-6	-78.443604
1.568515E-6	-77.146678
1.56856E-6	-74.49527
1.568605E-6	-70.538426
1.56865E-6	-68.099486
1.568695E-6	-67.101882
1.56874E-6	-67.13319
1.568785E-6	-67.075224
1.56883E-6	-67.081873
1.568875E-6	-67.20105
1.56892E-6	-67.265357
1.568965E-6	-67.780644
1.56901E-6	-69.273825
1.569055E-6	-72.22066
1.5691E-6	-75.872036
1.569145E-6	-77.71343
1.56919E-6	-78.706324
1.569235E-6	-77.77804
1.56928E-6	-77.969671
1.569325E-6	-78.124793
1.56937E-6	-75.460704
1.569415E-6	-71.844887
1.56946E-6	-69.182927
1.569505E-6	-67.983298
1.56955E-6	-67.739159
1.569595E-6	-67.772835
1.56964E-6	-67.74174
1.569685E-6	-67.765041
1.56973E-6	-67.825161
1.569775E-6	-68.17015
1.56982E-6	-69.381707
1.569865E-6	-71.691548
1.56991E-6	-75.488278
1.569955E-6	-77.456937
1.57E-6	-78.046539
