Wavelength (nm)	Power (dBm)
1.525E-6	-76.101254
1.525045E-6	-75.885487
1.52509E-6	-76.639407
1.525135E-6	-77.983298
1.52518E-6	-81.570789
1.525225E-6	-86.126102
1.52527E-6	-89.982663
1.525315E-6	-89.570309
1.52536E-6	-96.983191
1.525405E-6	-86.647427
1.52545E-6	-86.522798
1.525495E-6	-83.1078
1.52554E-6	-77.14893
1.525585E-6	-75.208568
1.52563E-6	-75.021033
1.525675E-6	-74.675004
1.52572E-6	-74.532106
1.525765E-6	-74.345064
1.52581E-6	-74.10609
1.525855E-6	-74.410516
1.5259E-6	-75.83859
1.525945E-6	-79.125735
1.52599E-6	-82.299584
1.526035E-6	-85.001755
1.52608E-6	-86.181632
1.526125E-6	-85.670307
1.52617E-6	-89.438577
1.526215E-6	-87.708303
1.52626E-6	-82.198268
1.526305E-6	-76.455074
1.52635E-6	-74.187332
1.526395E-6	-73.362049
1.52644E-6	-73.23215
1.526485E-6	-73.156035
1.52653E-6	-73.014645
1.526575E-6	-73.066248
1.52662E-6	-73.164127
1.526665E-6	-74.289903
1.52671E-6	-77.101882
1.526755E-6	-81.302404
1.5268E-6	-85.49443
1.526845E-6	-87.452103
1.52689E-6	-88.992849
1.526935E-6	-120
1.52698E-6	-86.360122
1.527025E-6	-83.76544
1.52707E-6	-76.337639
1.527115E-6	-73.456309
1.52716E-6	-72.409368
1.527205E-6	-72.055817
1.52725E-6	-71.962698
1.527295E-6	-71.894315
1.52734E-6	-71.693472
1.527385E-6	-71.854195
1.52743E-6	-72.726214
1.527475E-6	-74.92819
1.52752E-6	-79.75925
1.527565E-6	-82.241712
1.52761E-6	-88.620133
1.527655E-6	-86.076548
1.5277E-6	-85.489815
1.527745E-6	-87.297871
1.52779E-6	-84.173686
1.527835E-6	-76.653452
1.52788E-6	-73.039933
1.527925E-6	-71.464235
1.52797E-6	-70.999061
1.528015E-6	-70.92965
1.52806E-6	-71.016588
1.528105E-6	-70.799289
1.52815E-6	-70.847057
1.528195E-6	-71.275524
1.52824E-6	-73.046059
1.528285E-6	-76.726411
1.52833E-6	-80.926962
1.528375E-6	-84.592952
1.52842E-6	-88.309136
1.528465E-6	-85.380515
1.52851E-6	-87.994231
1.528555E-6	-89.677843
1.5286E-6	-78.607508
1.528645E-6	-73.000756
1.52869E-6	-70.824945
1.528735E-6	-70.385314
1.52878E-6	-70.091729
1.528825E-6	-70.002172
1.52887E-6	-70.03007
1.528915E-6	-70.103278
1.52896E-6	-70.279361
1.529005E-6	-71.510723
1.52905E-6	-75.115903
1.529095E-6	-79.833845
1.52914E-6	-83.832095
1.529185E-6	-87.435228
1.52923E-6	-84.166878
1.529275E-6	-85.446982
1.52932E-6	-85.553308
1.529365E-6	-79.92679
1.52941E-6	-73.49304
1.529455E-6	-70.698153
1.5295E-6	-69.775716
1.529545E-6	-69.511699
1.52959E-6	-69.531148
1.529635E-6	-69.461536
1.52968E-6	-69.393022
1.529725E-6	-69.535048
1.52977E-6	-70.370154
1.529815E-6	-72.922595
1.52986E-6	-77.18285
1.529905E-6	-82.177424
1.52995E-6	-84.994891
1.529995E-6	-87.503126
1.53004E-6	-85.816987
1.530085E-6	-90.795114
1.53013E-6	-82.383728
1.530175E-6	-74.833324
1.53022E-6	-71.043013
1.530265E-6	-69.649707
1.53031E-6	-69.193735
1.530355E-6	-69.017025
1.5304E-6	-69.129288
1.530445E-6	-69.017025
1.53049E-6	-69.072794
1.530535E-6	-69.50782
1.53058E-6	-71.249966
1.530625E-6	-75.670307
1.53067E-6	-80.160131
1.530715E-6	-83.757179
1.53076E-6	-86.581699
1.530805E-6	-84.962093
1.53085E-6	-87.396901
1.530895E-6	-82.41997
1.53094E-6	-76.899443
1.530985E-6	-71.825669
1.53103E-6	-69.574245
1.531075E-6	-68.955129
1.53112E-6	-68.880657
1.531165E-6	-68.810742
1.53121E-6	-68.840568
1.531255E-6	-68.76475
1.5313E-6	-68.76475
1.531345E-6	-70.353162
1.53139E-6	-73.540867
1.531435E-6	-79.270153
1.53148E-6	-83.231236
1.531525E-6	-86.68168
1.53157E-6	-86.991872
1.531615E-6	-85.934598
1.53166E-6	-84.754741
1.531705E-6	-80.677292
1.53175E-6	-73.109577
1.531795E-6	-70.137659
1.53184E-6	-69.122186
1.531885E-6	-68.880657
1.53193E-6	-68.774565
1.531975E-6	-68.934691
1.53202E-6	-68.843895
1.532065E-6	-68.965384
1.53211E-6	-69.775716
1.532155E-6	-72.219211
1.5322E-6	-76.66956
1.532245E-6	-81.403214
1.53229E-6	-85.066814
1.532335E-6	-85.872036
1.53238E-6	-86.994045
1.532425E-6	-86.765416
1.53247E-6	-82.646407
1.532515E-6	-74.967542
1.53256E-6	-71.215931
1.532605E-6	-69.605859
1.53265E-6	-69.041335
1.532695E-6	-68.948306
1.53274E-6	-68.958544
1.532785E-6	-69.0309
1.53283E-6	-69.132843
1.532875E-6	-69.446217
1.53292E-6	-71.15148
1.532965E-6	-74.763836
1.53301E-6	-79.817157
1.533055E-6	-86.011923
1.5331E-6	-87.139929
1.533145E-6	-89.023957
1.53319E-6	-86.38461
1.533235E-6	-85.600361
1.53328E-6	-79.621752
1.533325E-6	-72.937945
1.53337E-6	-70.499761
1.533415E-6	-69.625735
1.53346E-6	-69.492337
1.533505E-6	-69.480761
1.53355E-6	-69.554602
1.533595E-6	-69.653715
1.53364E-6	-69.75104
1.533685E-6	-70.743785
1.53373E-6	-73.210266
1.533775E-6	-78.250684
1.53382E-6	-82.126104
1.533865E-6	-84.88384
1.53391E-6	-87.361273
1.533955E-6	-86.212388
1.534E-6	-86.247023
1.534045E-6	-82.745784
1.53409E-6	-75.395532
1.534135E-6	-72.025247
1.53418E-6	-70.700194
1.534225E-6	-70.355047
1.53427E-6	-70.317973
1.534315E-6	-70.2489
1.53436E-6	-70.404816
1.534405E-6	-70.541869
1.53445E-6	-70.94906
1.534495E-6	-72.851675
1.53454E-6	-76.777807
1.534585E-6	-81.174185
1.53463E-6	-84.854522
1.534675E-6	-85.926091
1.53472E-6	-90.669685
1.534765E-6	-86.455074
1.53481E-6	-84.752146
1.534855E-6	-79.172146
1.5349E-6	-74.220489
1.534945E-6	-71.803245
1.53499E-6	-71.240132
1.535035E-6	-71.050197
1.53508E-6	-71.117082
1.535125E-6	-71.127204
1.53517E-6	-71.106983
1.535215E-6	-71.345407
1.53526E-6	-72.515019
1.535305E-6	-75.433304
1.53535E-6	-79.503944
1.535395E-6	-83.467875
1.53544E-6	-86.080069
1.535485E-6	-85.855281
1.53553E-6	-84.059391
1.535575E-6	-76.411138
1.53562E-6	-63.412257
1.535665E-6	-49.829667
1.53571E-6	-43.490129
1.535755E-6	-41.500894
1.5358E-6	-41.093555
1.535845E-6	-41.139043
1.53589E-6	-41.238399
1.535935E-6	-41.350738
1.53598E-6	-41.977738
1.536025E-6	-44.366376
1.53607E-6	-49.515582
1.536115E-6	-60.240171
1.53616E-6	-68.27689
1.536205E-6	-75.234582
1.53625E-6	-80.167346
1.536295E-6	-84.211317
1.53634E-6	-84.886515
1.536385E-6	-86.378947
1.53643E-6	-80.611302
1.536475E-6	-75.300308
1.53652E-6	-72.991233
1.536565E-6	-72.328441
1.53661E-6	-72.568039
1.536655E-6	-72.438205
1.5367E-6	-72.37997
1.536745E-6	-72.362726
1.53679E-6	-72.628074
1.536835E-6	-73.712025
1.53688E-6	-76.33017
1.536925E-6	-80.656026
1.53697E-6	-83.857357
1.537015E-6	-85.094797
1.53706E-6	-85.712175
1.537105E-6	-83.20663
1.53715E-6	-75.86365
1.537195E-6	-63.647174
1.53724E-6	-49.863203
1.537285E-6	-43.625103
1.53733E-6	-41.567672
1.537375E-6	-41.158279
1.53742E-6	-41.126641
1.537465E-6	-41.154878
1.53751E-6	-41.204454
1.537555E-6	-41.735365
1.5376E-6	-44.03953
1.537645E-6	-49.233596
1.53769E-6	-59.808837
1.537735E-6	-68.074325
1.53778E-6	-74.686488
1.537825E-6	-79.197344
1.53787E-6	-83.557584
1.537915E-6	-84.473318
1.53796E-6	-86.409238
1.538005E-6	-80.328734
1.53805E-6	-75.765903
1.538095E-6	-73.547743
1.53814E-6	-73.092725
1.538185E-6	-72.860057
1.53823E-6	-72.699448
1.538275E-6	-72.911544
1.53832E-6	-73.088301
1.538365E-6	-73.078584
1.53841E-6	-74.100504
1.538455E-6	-76.544302
1.5385E-6	-79.821323
1.538545E-6	-83.161428
1.53859E-6	-84.705696
1.538635E-6	-85.212892
1.53868E-6	-83.065369
1.538725E-6	-78.236193
1.53877E-6	-65.162701
1.538815E-6	-50.960965
1.53886E-6	-44.147649
1.538905E-6	-41.890957
1.53895E-6	-41.360826
1.538995E-6	-41.280186
1.53904E-6	-41.234358
1.539085E-6	-41.232627
1.53913E-6	-41.597057
1.539175E-6	-43.64818
1.53922E-6	-48.804142
1.539265E-6	-58.699881
1.53931E-6	-67.046529
1.539355E-6	-74.30509
1.5394E-6	-78.71924
1.539445E-6	-83.035562
1.53949E-6	-83.326405
1.539535E-6	-84.661009
1.53958E-6	-81.055732
1.539625E-6	-76.183435
1.53967E-6	-73.607128
1.539715E-6	-72.840802
1.53976E-6	-72.90052
1.539805E-6	-72.532102
1.53985E-6	-72.879399
1.539895E-6	-72.658405
1.53994E-6	-72.880241
1.539985E-6	-73.565473
1.54003E-6	-76.117211
1.540075E-6	-79.359166
1.54012E-6	-83.988095
1.540165E-6	-85.559552
1.54021E-6	-85.955084
1.540255E-6	-83.337629
1.5403E-6	-79.262816
1.540345E-6	-68.867253
1.54039E-6	-52.224282
1.540435E-6	-44.689045
1.54048E-6	-42.073982
1.540525E-6	-41.367366
1.54057E-6	-41.231474
1.540615E-6	-41.170203
1.54066E-6	-41.12439
1.540705E-6	-41.433315
1.54075E-6	-43.199366
1.540795E-6	-47.814645
1.54084E-6	-56.974526
1.540885E-6	-65.581478
1.54093E-6	-73.316141
1.540975E-6	-79.157813
1.54102E-6	-83.095381
1.541065E-6	-85.069604
1.54111E-6	-84.609239
1.541155E-6	-81.84688
1.5412E-6	-75.810362
1.541245E-6	-73.368647
1.54129E-6	-72.366469
1.541335E-6	-72.225007
1.54138E-6	-72.022479
1.541425E-6	-72.204035
1.54147E-6	-72.097148
1.541515E-6	-72.181011
1.54156E-6	-72.895441
1.541605E-6	-75.010006
1.54165E-6	-79.017025
1.541695E-6	-82.63046
1.54174E-6	-84.163479
1.541785E-6	-85.043169
1.54183E-6	-82.498775
1.541875E-6	-79.97402
1.54192E-6	-71.36142
1.541965E-6	-54.223933
1.54201E-6	-46.122543
1.542055E-6	-42.323989
1.5421E-6	-41.35845
1.542145E-6	-41.195866
1.54219E-6	-41.120453
1.542235E-6	-41.094672
1.54228E-6	-41.210763
1.542325E-6	-42.430598
1.54237E-6	-46.118988
1.542415E-6	-53.836295
1.54246E-6	-62.855026
1.542505E-6	-71.000154
1.54255E-6	-78.144578
1.542595E-6	-80.761345
1.54264E-6	-83.948027
1.542685E-6	-83.980486
1.54273E-6	-82.234441
1.542775E-6	-76.575773
1.54282E-6	-73.079466
1.542865E-6	-71.964063
1.54291E-6	-71.651979
1.542955E-6	-71.712757
1.543E-6	-71.577653
1.543045E-6	-71.573908
1.54309E-6	-71.602706
1.543135E-6	-72.017638
1.54318E-6	-73.793435
1.543225E-6	-77.562181
1.54327E-6	-81.400216
1.543315E-6	-83.870043
1.54336E-6	-84.699284
1.543405E-6	-84.390179
1.54345E-6	-82.104898
1.543495E-6	-74.013189
1.54354E-6	-58.850556
1.543585E-6	-47.780644
1.54363E-6	-42.879399
1.543675E-6	-41.441176
1.54372E-6	-41.133401
1.543765E-6	-41.062937
1.54381E-6	-41.065712
1.543855E-6	-41.113713
1.5439E-6	-41.930065
1.543945E-6	-44.797786
1.54399E-6	-51.083511
1.544035E-6	-62.094334
1.54408E-6	-68.900841
1.544125E-6	-76.152883
1.54417E-6	-80.40577
1.544215E-6	-82.768728
1.54426E-6	-84.971634
1.544305E-6	-84.727569
1.54435E-6	-78.44664
1.544395E-6	-73.759243
1.54444E-6	-71.806535
1.544485E-6	-71.363798
1.54453E-6	-71.199872
1.544575E-6	-71.195294
1.54462E-6	-71.183301
1.544665E-6	-71.260403
1.54471E-6	-71.497214
1.544755E-6	-72.575891
1.5448E-6	-75.691191
1.544845E-6	-79.867413
1.54489E-6	-84.329736
1.544935E-6	-86.239708
1.54498E-6	-84.859838
1.545025E-6	-84.46117
1.54507E-6	-76.645421
1.545115E-6	-63.759243
1.54516E-6	-50.216825
1.545205E-6	-43.829997
1.54525E-6	-41.681942
1.545295E-6	-41.215931
1.54534E-6	-41.130583
1.545385E-6	-41.081839
1.54543E-6	-41.104182
1.545475E-6	-41.467278
1.54552E-6	-43.3762
1.545565E-6	-48.401322
1.54561E-6	-57.522722
1.545655E-6	-66.272721
1.5457E-6	-73.29105
1.545745E-6	-79.488475
1.54579E-6	-83.328273
1.545835E-6	-84.403327
1.54588E-6	-84.316809
1.545925E-6	-81.319436
1.54597E-6	-74.587953
1.546015E-6	-72.197547
1.54606E-6	-71.263888
1.546105E-6	-71.262726
1.54615E-6	-71.079611
1.546195E-6	-71.068488
1.54624E-6	-71.079611
1.546285E-6	-71.211911
1.54633E-6	-71.935487
1.546375E-6	-74.028535
1.54642E-6	-78.800846
1.546465E-6	-82.894596
1.54651E-6	-86.062494
1.546555E-6	-86.024076
1.5466E-6	-84.30392
1.546645E-6	-80.859743
1.54669E-6	-71.851533
1.546735E-6	-55.168408
1.54678E-6	-46.540385
1.546825E-6	-42.415423
1.54687E-6	-41.311793
1.546915E-6	-41.109786
1.54696E-6	-41.082396
1.547005E-6	-41.094672
1.54705E-6	-41.185583
1.547095E-6	-42.31806
1.54714E-6	-45.764265
1.547185E-6	-52.870979
1.54723E-6	-61.751585
1.547275E-6	-70.430156
1.54732E-6	-77.286231
1.547365E-6	-81.76265
1.54741E-6	-83.240385
1.547455E-6	-84.081566
1.5475E-6	-82.888679
1.547545E-6	-76.145725
1.54759E-6	-73.153341
1.547635E-6	-71.615917
1.54768E-6	-70.94906
1.547725E-6	-71.113713
1.54777E-6	-71.049644
1.547815E-6	-71.095231
1.54786E-6	-71.150348
1.547905E-6	-71.375108
1.54795E-6	-72.75888
1.547995E-6	-76.024076
1.54804E-6	-79.637705
1.548085E-6	-83.188493
1.54813E-6	-86.252517
1.548175E-6	-84.955291
1.54822E-6	-83.827899
1.548265E-6	-75.895602
1.54831E-6	-62.197547
1.548355E-6	-49.427144
1.5484E-6	-43.540867
1.548445E-6	-41.612768
1.54849E-6	-41.217655
1.548535E-6	-41.145257
1.54858E-6	-41.120453
1.548625E-6	-41.119329
1.54867E-6	-41.553986
1.548715E-6	-43.64818
1.54876E-6	-48.948306
1.548805E-6	-58.671002
1.54885E-6	-66.848697
1.548895E-6	-74.102737
1.54894E-6	-79.164974
1.548985E-6	-82.648005
1.54903E-6	-84.920093
1.549075E-6	-84.854522
1.54912E-6	-81.232627
1.549165E-6	-74.544455
1.54921E-6	-72.16025
1.549255E-6	-71.305923
1.5493E-6	-71.104742
1.549345E-6	-70.936111
1.54939E-6	-71.110347
1.549435E-6	-70.958256
1.54948E-6	-71.166225
1.549525E-6	-71.876884
1.54957E-6	-73.826851
1.549615E-6	-77.539941
1.54966E-6	-81.966795
1.549705E-6	-84.833324
1.54975E-6	-83.847867
1.549795E-6	-85.595632
1.54984E-6	-80.769115
1.549885E-6	-72.285595
1.54993E-6	-55.823623
1.549975E-6	-46.744843
1.55002E-6	-42.536772
1.550065E-6	-41.384656
1.55011E-6	-41.198727
1.550155E-6	-41.16793
1.5502E-6	-41.133965
1.550245E-6	-41.193007
1.55029E-6	-42.005216
1.550335E-6	-44.86516
1.55038E-6	-51.178171
1.550425E-6	-62.452695
1.55047E-6	-68.91435
1.550515E-6	-76.430186
1.55056E-6	-80.391964
1.550605E-6	-83.080349
1.55065E-6	-85.67191
1.550695E-6	-85.152732
1.55074E-6	-78.303256
1.550785E-6	-73.442855
1.55083E-6	-71.619699
1.550875E-6	-71.210189
1.55092E-6	-70.989233
1.550965E-6	-70.966929
1.55101E-6	-70.840728
1.551055E-6	-70.798245
1.5511E-6	-71.051303
1.551145E-6	-72.115488
1.55119E-6	-75.506759
1.551235E-6	-79.262816
1.55128E-6	-84.137504
1.551325E-6	-85.573635
1.55137E-6	-87.064165
1.551415E-6	-82.243168
1.55146E-6	-78.520147
1.551505E-6	-66.593576
1.55155E-6	-51.667254
1.551595E-6	-44.494048
1.55164E-6	-41.990768
1.551685E-6	-41.354889
1.55173E-6	-41.254022
1.551775E-6	-41.254602
1.55182E-6	-41.234358
1.551865E-6	-41.408617
1.55191E-6	-42.904756
1.551955E-6	-46.985359
1.552E-6	-55.215778
1.552045E-6	-64.19189
1.55209E-6	-71.878222
1.552135E-6	-78.51089
1.55218E-6	-82.535215
1.552225E-6	-84.074902
1.55227E-6	-87.361273
1.552315E-6	-82.861736
1.55236E-6	-75.99462
1.552405E-6	-72.486439
1.55245E-6	-71.182731
1.552495E-6	-70.979971
1.55254E-6	-70.953385
1.552585E-6	-70.856568
1.55263E-6	-70.842837
1.552675E-6	-70.914614
1.55272E-6	-71.195866
1.552765E-6	-72.904756
1.55281E-6	-76.199698
1.552855E-6	-80.284458
1.5529E-6	-85.62408
1.552945E-6	-85.114493
1.55299E-6	-83.876401
1.553035E-6	-82.367218
1.55308E-6	-75.562678
1.553125E-6	-61.413425
1.55317E-6	-48.931295
1.553215E-6	-43.154239
1.55326E-6	-41.435732
1.553305E-6	-41.090204
1.55335E-6	-41.002889
1.553395E-6	-40.989233
1.55344E-6	-40.972902
1.553485E-6	-41.362015
1.55353E-6	-43.46884
1.553575E-6	-48.591778
1.55362E-6	-57.966951
1.553665E-6	-66.165437
1.55371E-6	-73.33482
1.553755E-6	-79.139963
1.5538E-6	-82.533658
1.553845E-6	-83.504704
1.55389E-6	-86.435917
1.553935E-6	-80.314237
1.55398E-6	-74.249277
1.554025E-6	-71.921269
1.55407E-6	-70.901232
1.554115E-6	-70.878311
1.55416E-6	-70.679323
1.554205E-6	-70.719628
1.55425E-6	-70.684404
1.554295E-6	-70.732461
1.55434E-6	-71.32238
1.554385E-6	-73.505678
1.55443E-6	-77.473897
1.554475E-6	-81.146388
1.55452E-6	-84.063817
1.554565E-6	-84.685211
1.55461E-6	-88.265224
1.554655E-6	-82.240984
1.5547E-6	-73.316141
1.554745E-6	-58.291518
1.55479E-6	-47.309543
1.554835E-6	-42.662412
1.55488E-6	-41.384656
1.554925E-6	-41.100264
1.55497E-6	-41.051303
1.555015E-6	-41.033636
1.55506E-6	-41.058502
1.555105E-6	-41.576404
1.55515E-6	-44.041732
1.555195E-6	-49.54677
1.55524E-6	-60.423448
1.555285E-6	-68.477117
1.55533E-6	-74.70313
1.555375E-6	-80.432075
1.55542E-6	-83.07682
1.555465E-6	-86.088884
1.55551E-6	-83.758211
1.555555E-6	-79.681877
1.5556E-6	-73.70081
1.555645E-6	-71.514414
1.55569E-6	-70.652996
1.555735E-6	-70.567529
1.55578E-6	-70.652996
1.555825E-6	-70.480799
1.55587E-6	-70.395292
1.555915E-6	-70.600317
1.55596E-6	-71.277854
1.556005E-6	-73.482376
1.55605E-6	-77.56962
1.556095E-6	-81.940236
1.55614E-6	-87.153437
1.556185E-6	-87.10411
1.55623E-6	-83.317073
1.556275E-6	-80.167346
1.55632E-6	-71.942274
1.556365E-6	-55.252012
1.55641E-6	-46.414941
1.556455E-6	-42.307704
1.5565E-6	-41.274941
1.556545E-6	-41.081839
1.55659E-6	-41.044117
1.556635E-6	-41.082396
1.55668E-6	-41.102502
1.556725E-6	-41.792732
1.55677E-6	-44.509967
1.556815E-6	-50.664115
1.55686E-6	-61.660246
1.556905E-6	-69.233596
1.55695E-6	-75.951663
1.556995E-6	-80.759793
1.55704E-6	-82.899673
1.557085E-6	-86.183435
1.55713E-6	-83.930815
1.557175E-6	-78.706324
1.55722E-6	-73.3762
1.557265E-6	-71.300646
1.55731E-6	-70.606805
1.557355E-6	-70.499274
1.5574E-6	-70.546299
1.557445E-6	-70.538426
1.55749E-6	-70.657036
1.557535E-6	-70.74327
1.55758E-6	-71.603963
1.557625E-6	-73.837346
1.55767E-6	-78.244882
1.557715E-6	-81.817081
1.55776E-6	-86.520848
1.557805E-6	-85.198493
1.55785E-6	-85.383514
1.557895E-6	-79.812995
1.55794E-6	-71.193579
1.557985E-6	-54.424928
1.55803E-6	-46.078309
1.558075E-6	-42.219935
1.55812E-6	-41.185012
1.558165E-6	-40.996329
1.55821E-6	-40.973989
1.558255E-6	-40.978883
1.5583E-6	-41.082396
1.558345E-6	-41.874208
1.55839E-6	-44.762535
1.558435E-6	-51.038046
1.55848E-6	-61.988708
1.558525E-6	-69.542859
1.55857E-6	-75.985995
1.558615E-6	-80.853924
1.55866E-6	-83.445734
1.558705E-6	-83.285494
1.55875E-6	-84.259687
1.558795E-6	-78.860566
1.55884E-6	-73.662287
1.558885E-6	-71.429088
1.55893E-6	-70.844946
1.558975E-6	-70.687456
1.55902E-6	-70.806081
1.559065E-6	-70.843891
1.55911E-6	-70.774821
1.559155E-6	-70.809219
1.5592E-6	-71.899692
1.559245E-6	-74.03293
1.55929E-6	-78.489367
1.559335E-6	-83.167728
1.55938E-6	-86.587634
1.559425E-6	-85.967079
1.55947E-6	-84.295738
1.559515E-6	-80.586377
1.55956E-6	-71.868862
1.559605E-6	-55.182708
1.55965E-6	-46.495581
1.559695E-6	-42.333641
1.55974E-6	-41.288943
1.559785E-6	-41.129456
1.55983E-6	-41.133965
1.559875E-6	-41.193579
1.55992E-6	-41.27902
1.559965E-6	-42.056514
1.56001E-6	-45.011383
1.560055E-6	-51.382267
1.5601E-6	-62.375465
1.560145E-6	-69.136402
1.56019E-6	-75.887171
1.560235E-6	-80.283531
1.56028E-6	-82.975695
1.560325E-6	-84.943075
1.56037E-6	-84.012095
1.560415E-6	-79.738755
1.56046E-6	-74.399738
1.560505E-6	-72.062794
1.56055E-6	-71.397219
1.560595E-6	-71.340673
1.56064E-6	-71.30299
1.560685E-6	-71.255182
1.56073E-6	-71.138478
1.560775E-6	-71.534155
1.56082E-6	-72.250453
1.560865E-6	-74.769042
1.56091E-6	-78.843895
1.560955E-6	-83.190303
1.561E-6	-86.893067
1.561045E-6	-88.265224
1.56109E-6	-86.439741
1.561135E-6	-91.031432
1.56118E-6	-85.825283
1.561225E-6	-80.139004
1.56127E-6	-74.385408
1.561315E-6	-72.51812
1.56136E-6	-71.813783
1.561405E-6	-71.641193
1.56145E-6	-71.644997
1.561495E-6	-71.667254
1.56154E-6	-71.638025
1.561585E-6	-71.905076
1.56163E-6	-72.454223
1.561675E-6	-75.003129
1.56172E-6	-78.544928
1.561765E-6	-82.947351
1.56181E-6	-85.389519
1.561855E-6	-87.281584
1.5619E-6	-85.144205
1.561945E-6	-88.416375
1.56199E-6	-95.848596
1.562035E-6	-81.566426
1.56208E-6	-75.087784
1.562125E-6	-73.122036
1.56217E-6	-72.308443
1.562215E-6	-72.014184
1.56226E-6	-72.076784
1.562305E-6	-72.187474
1.56235E-6	-72.118316
1.562395E-6	-72.168113
1.56244E-6	-73.028579
1.562485E-6	-74.871822
1.56253E-6	-79.233596
1.562575E-6	-82.070483
1.56262E-6	-86.422557
1.562665E-6	-86.35074
1.56271E-6	-86.647427
1.562755E-6	-86.601512
1.5628E-6	-86.53647
1.562845E-6	-81.682582
1.56289E-6	-75.83859
1.562935E-6	-73.670368
1.56298E-6	-72.66883
1.563025E-6	-72.709162
1.56307E-6	-72.575891
1.563115E-6	-72.627278
1.56316E-6	-72.501092
1.563205E-6	-72.76052
1.56325E-6	-73.111354
1.563295E-6	-75.158426
1.56334E-6	-79.154237
1.563385E-6	-83.123819
1.56343E-6	-86.842395
1.563475E-6	-88.268137
1.56352E-6	-86.524748
1.563565E-6	-88.467951
1.56361E-6	-85.30178
1.563655E-6	-82.66161
1.5637E-6	-78.190144
1.563745E-6	-74.607984
1.56379E-6	-73.341377
1.563835E-6	-73.091839
1.56388E-6	-73.012037
1.563925E-6	-73.237638
1.56397E-6	-73.055703
1.564015E-6	-73.265183
1.56406E-6	-74.422523
1.564105E-6	-74.423725
1.56415E-6	-78.900841
1.564195E-6	-82.42604
1.56424E-6	-83.997897
1.564285E-6	-89.093893
1.56433E-6	-90.467237
1.564375E-6	-87.520267
1.56442E-6	-86.051982
1.564465E-6	-85.476002
1.56451E-6	-79.270153
1.564555E-6	-75.175552
1.5646E-6	-73.798639
1.564645E-6	-74.007721
1.56469E-6	-73.989183
1.564735E-6	-73.653212
1.56478E-6	-73.773716
1.564825E-6	-73.732491
1.56487E-6	-74.059391
1.564915E-6	-75.148467
1.56496E-6	-78.754958
1.565005E-6	-82.090818
1.56505E-6	-86.518899
1.565095E-6	-90.318441
1.56514E-6	-87.059749
1.565185E-6	-89.295927
1.56523E-6	-87.796304
1.565275E-6	-87.654827
1.56532E-6	-80.735032
1.565365E-6	-76.232406
1.56541E-6	-74.649592
1.565455E-6	-74.127382
1.5655E-6	-74.487941
1.565545E-6	-74.46724
1.56559E-6	-74.375882
1.565635E-6	-74.638205
1.56568E-6	-74.932245
1.565725E-6	-75.944829
1.56577E-6	-78.029953
1.565815E-6	-82.684918
1.56586E-6	-85.936302
1.565905E-6	-89.164974
1.56595E-6	-90.951222
1.565995E-6	-86.458916
1.56604E-6	-89.871628
1.566085E-6	-88.207355
1.56613E-6	-81.382864
1.566175E-6	-77.153437
1.56622E-6	-75.705707
1.566265E-6	-75.093393
1.56631E-6	-74.87983
1.566355E-6	-74.925489
1.5664E-6	-75.094797
1.566445E-6	-75.07519
1.56649E-6	-75.257837
1.566535E-6	-76.239708
1.56658E-6	-78.59492
1.566625E-6	-81.35311
1.56667E-6	-85.987718
1.566715E-6	-90.748427
1.56676E-6	-91.447232
1.566805E-6	-88.635966
1.56685E-6	-90.945279
1.566895E-6	-90.151128
1.56694E-6	-83.864753
1.566985E-6	-79.132843
1.56703E-6	-76.272721
1.567075E-6	-75.89729
1.56712E-6	-75.775743
1.567165E-6	-75.757719
1.56721E-6	-75.84359
1.567255E-6	-75.987718
1.5673E-6	-76.151092
1.567345E-6	-76.92718
1.56739E-6	-79.442395
1.567435E-6	-80.88949
1.56748E-6	-85.728386
1.567525E-6	-87.16925
1.56757E-6	-91.106423
1.567615E-6	-86.798537
1.56766E-6	-87.594508
1.567705E-6	-86.108339
1.56775E-6	-83.226668
1.567795E-6	-80.485653
1.56784E-6	-76.940041
1.567885E-6	-76.241536
1.56793E-6	-76.170829
1.567975E-6	-76.852903
1.56802E-6	-76.651443
1.568065E-6	-76.511113
1.56811E-6	-76.35449
1.568155E-6	-76.554113
1.5682E-6	-79.492337
1.568245E-6	-81.359638
1.56829E-6	-84.048346
1.568335E-6	-90.747395
1.56838E-6	-90.372993
1.568425E-6	-89.310724
1.56847E-6	-97.851562
1.568515E-6	-90.67577
1.56856E-6	-86.675615
1.568605E-6	-80.842309
1.56865E-6	-79.219058
1.568695E-6	-77.406451
1.56874E-6	-76.706021
1.568785E-6	-77.108572
1.56883E-6	-76.802695
1.568875E-6	-77.46662
1.56892E-6	-77.358908
1.568965E-6	-77.79369
1.56901E-6	-78.329782
1.569055E-6	-81.56269
1.5691E-6	-83.014645
1.569145E-6	-88.04931
1.56919E-6	-86.852903
1.569235E-6	-88.297383
1.56928E-6	-88.23041
1.569325E-6	-89.718356
1.56937E-6	-85.836924
1.569415E-6	-84.180503
1.56946E-6	-80.216369
1.569505E-6	-78.06041
1.56955E-6	-78.029953
1.569595E-6	-78.029953
1.56964E-6	-78.147412
1.569685E-6	-78.074325
1.56973E-6	-77.432823
1.569775E-6	-78.005191
1.56982E-6	-79.605859
1.569865E-6	-80.306773
1.56991E-6	-85.134278
1.569955E-6	-88.560489
1.57E-6	-88.01893
