Wavelength (nm)	Power (dBm)
1.525E-6	-76.861328
1.525045E-6	-77.459355
1.52509E-6	-77.996968
1.525135E-6	-79.669786
1.52518E-6	-82.344059
1.525225E-6	-85.818645
1.52527E-6	-88.204482
1.525315E-6	-120
1.52536E-6	-94.169146
1.525405E-6	-92.173841
1.52545E-6	-86.844495
1.525495E-6	-83.211176
1.52554E-6	-78.894103
1.525585E-6	-76.29117
1.52563E-6	-75.961934
1.525675E-6	-75.667103
1.52572E-6	-75.282683
1.525765E-6	-75.28855
1.52581E-6	-75.281218
1.525855E-6	-75.385015
1.5259E-6	-76.876111
1.525945E-6	-80.023515
1.52599E-6	-84.336804
1.526035E-6	-88.184422
1.52608E-6	-90.80765
1.526125E-6	-93.857357
1.52617E-6	-91.544059
1.526215E-6	-87.825161
1.52626E-6	-82.915791
1.526305E-6	-77.230789
1.52635E-6	-74.989407
1.526395E-6	-74.292236
1.52644E-6	-74.034029
1.526485E-6	-74.06271
1.52653E-6	-73.922234
1.526575E-6	-73.776823
1.52662E-6	-74.086014
1.526665E-6	-75.322439
1.52671E-6	-78.244882
1.526755E-6	-81.709537
1.5268E-6	-85.450028
1.526845E-6	-85.898979
1.52689E-6	-87.983298
1.526935E-6	-89.531148
1.52698E-6	-87.744323
1.527025E-6	-83.957739
1.52707E-6	-76.946486
1.527115E-6	-73.921163
1.52716E-6	-73.247717
1.527205E-6	-72.808345
1.52725E-6	-72.902214
1.527295E-6	-72.915791
1.52734E-6	-72.762981
1.527385E-6	-72.614573
1.52743E-6	-73.680492
1.527475E-6	-76.017127
1.52752E-6	-79.961088
1.527565E-6	-85.970512
1.52761E-6	-87.444863
1.527655E-6	-87.657359
1.5277E-6	-94.443011
1.527745E-6	-86.976691
1.52779E-6	-85.606673
1.527835E-6	-78.37137
1.52788E-6	-73.938337
1.527925E-6	-72.298847
1.52797E-6	-71.992829
1.528015E-6	-71.832286
1.52806E-6	-72.008663
1.528105E-6	-71.891628
1.52815E-6	-71.823024
1.528195E-6	-72.305488
1.52824E-6	-74.263163
1.528285E-6	-78.541823
1.52833E-6	-82.353009
1.528375E-6	-87.221617
1.52842E-6	-87.090754
1.528465E-6	-94.113922
1.52851E-6	-89.430951
1.528555E-6	-88.195874
1.5286E-6	-80.058149
1.528645E-6	-74.12289
1.52869E-6	-72.055817
1.528735E-6	-71.295376
1.52878E-6	-71.099145
1.528825E-6	-71.137349
1.52887E-6	-71.126078
1.528915E-6	-71.17191
1.52896E-6	-71.260403
1.529005E-6	-72.747419
1.52905E-6	-76.309698
1.529095E-6	-80.108172
1.52914E-6	-84.981195
1.529185E-6	-88.147412
1.52923E-6	-88.890738
1.529275E-6	-90.318908
1.52932E-6	-90.766523
1.529365E-6	-81.295376
1.52941E-6	-74.513649
1.529455E-6	-72.012113
1.5295E-6	-70.895891
1.529545E-6	-71.074602
1.52959E-6	-70.632852
1.529635E-6	-70.518316
1.52968E-6	-70.518316
1.529725E-6	-70.645431
1.52977E-6	-71.229167
1.529815E-6	-74.060497
1.52986E-6	-79.197344
1.529905E-6	-83.362049
1.52995E-6	-89.438577
1.529995E-6	-87.512913
1.53004E-6	-87.473897
1.530085E-6	-90.13721
1.53013E-6	-84.058285
1.530175E-6	-75.999804
1.53022E-6	-72.363474
1.530265E-6	-70.731947
1.53031E-6	-70.286778
1.530355E-6	-70.28817
1.5304E-6	-70.231917
1.530445E-6	-70.200876
1.53049E-6	-70.181814
1.530535E-6	-70.719115
1.53058E-6	-72.612194
1.530625E-6	-76.838199
1.53067E-6	-81.3389
1.530715E-6	-84.750849
1.53076E-6	-88.320922
1.530805E-6	-88.709549
1.53085E-6	-89.013563
1.530895E-6	-86.165437
1.53094E-6	-78.722475
1.530985E-6	-72.775306
1.53103E-6	-70.833882
1.531075E-6	-70.226423
1.53112E-6	-70.041894
1.531165E-6	-70.064756
1.53121E-6	-70.023952
1.531255E-6	-69.995659
1.5313E-6	-70.25028
1.531345E-6	-71.653886
1.53139E-6	-74.901257
1.531435E-6	-79.535048
1.53148E-6	-85.752817
1.531525E-6	-88.924509
1.53157E-6	-100.813931
1.531615E-6	-89.842212
1.53166E-6	-88.495506
1.531705E-6	-81.023729
1.53175E-6	-74.719837
1.531795E-6	-71.372129
1.53184E-6	-70.271032
1.531885E-6	-70.08641
1.53193E-6	-70.045403
1.531975E-6	-69.978339
1.53202E-6	-70.055069
1.532065E-6	-70.216825
1.53211E-6	-71.0122
1.532155E-6	-73.362991
1.5322E-6	-78.377344
1.532245E-6	-82.999889
1.53229E-6	-87.599502
1.532335E-6	-89.542859
1.53238E-6	-92.292216
1.532425E-6	-88.784402
1.53247E-6	-85.482136
1.532515E-6	-76.326441
1.53256E-6	-72.272384
1.532605E-6	-70.776898
1.53265E-6	-70.205427
1.532695E-6	-70.174122
1.53274E-6	-70.209983
1.532785E-6	-70.139901
1.53283E-6	-70.197239
1.532875E-6	-70.689492
1.53292E-6	-72.112661
1.532965E-6	-76.313413
1.53301E-6	-81.26505
1.533055E-6	-89.157813
1.5331E-6	-89.854795
1.533145E-6	-94.90663
1.53319E-6	-89.918258
1.533235E-6	-89.800533
1.53328E-6	-80.280287
1.533325E-6	-74.181641
1.53337E-6	-71.619069
1.533415E-6	-70.868752
1.53346E-6	-70.646439
1.533505E-6	-70.726296
1.53355E-6	-70.76031
1.533595E-6	-70.78886
1.53364E-6	-70.970729
1.533685E-6	-71.917215
1.53373E-6	-74.914703
1.533775E-6	-78.830604
1.53382E-6	-84.696722
1.533865E-6	-88.303256
1.53391E-6	-88.392314
1.533955E-6	-90.24063
1.534E-6	-94.960732
1.534045E-6	-84.282912
1.53409E-6	-76.313413
1.534135E-6	-73.125602
1.53418E-6	-71.746388
1.534225E-6	-71.438756
1.53427E-6	-71.381073
1.534315E-6	-71.233204
1.53436E-6	-71.334764
1.534405E-6	-71.605848
1.53445E-6	-72.027325
1.534495E-6	-73.977229
1.53454E-6	-78.144578
1.534585E-6	-82.046067
1.53463E-6	-85.895602
1.534675E-6	-88.44057
1.53472E-6	-88.78112
1.534765E-6	-88.71924
1.53481E-6	-87.980569
1.534855E-6	-80.747911
1.5349E-6	-74.80172
1.534945E-6	-72.703493
1.53499E-6	-72.119024
1.535035E-6	-71.958606
1.53508E-6	-72.035644
1.535125E-6	-72.053726
1.53517E-6	-72.119024
1.535215E-6	-72.277517
1.53526E-6	-73.527149
1.535305E-6	-76.556077
1.53535E-6	-80.062552
1.535395E-6	-85.246194
1.53544E-6	-90.784176
1.535485E-6	-92.832456
1.53553E-6	-93.401788
1.535575E-6	-103.321736
1.53562E-6	-85.275361
1.535665E-6	-77.542406
1.53571E-6	-74.134127
1.535755E-6	-72.933675
1.5358E-6	-72.550815
1.535845E-6	-72.814983
1.53589E-6	-72.709973
1.535935E-6	-72.786016
1.53598E-6	-72.767086
1.536025E-6	-73.359224
1.53607E-6	-75.450028
1.536115E-6	-78.492436
1.53616E-6	-84.878495
1.536205E-6	-88.215987
1.53625E-6	-89.779843
1.536295E-6	-88.890738
1.53634E-6	-95.654311
1.536385E-6	-94.797786
1.53643E-6	-81.937522
1.536475E-6	-76.154674
1.53652E-6	-73.929741
1.536565E-6	-73.384713
1.53661E-6	-73.318938
1.536655E-6	-73.465945
1.5367E-6	-73.368647
1.536745E-6	-73.394191
1.53679E-6	-73.584267
1.536835E-6	-74.997635
1.53688E-6	-77.535014
1.536925E-6	-81.324147
1.53697E-6	-86.022337
1.537015E-6	-93.34419
1.53706E-6	-93.782008
1.537105E-6	-90.906045
1.53715E-6	-87.375489
1.537195E-6	-87.520267
1.53724E-6	-79.473061
1.537285E-6	-75.44546
1.53733E-6	-73.935111
1.537375E-6	-73.711004
1.53742E-6	-73.727366
1.537465E-6	-73.660268
1.53751E-6	-73.635121
1.537555E-6	-73.550693
1.5376E-6	-74.263163
1.537645E-6	-75.718652
1.53769E-6	-79.222688
1.537735E-6	-83.672391
1.53778E-6	-120
1.537825E-6	-92.117609
1.53787E-6	-120
1.537915E-6	-86.708056
1.53796E-6	-93.456309
1.538005E-6	-81.275524
1.53805E-6	-76.432095
1.538095E-6	-74.48672
1.53814E-6	-73.944795
1.538185E-6	-73.744818
1.53823E-6	-73.976144
1.538275E-6	-73.816381
1.53832E-6	-73.725317
1.538365E-6	-73.840499
1.53841E-6	-74.92414
1.538455E-6	-78.029953
1.5385E-6	-81.442386
1.538545E-6	-87.950665
1.53859E-6	-86.581699
1.538635E-6	-91.278437
1.53868E-6	-93.067128
1.538725E-6	-87.189666
1.53877E-6	-87.469044
1.538815E-6	-79.438577
1.53886E-6	-75.400047
1.538905E-6	-74.381833
1.53895E-6	-73.94695
1.538995E-6	-73.706924
1.53904E-6	-73.787198
1.539085E-6	-73.718155
1.53913E-6	-73.759243
1.539175E-6	-73.977229
1.53922E-6	-75.841923
1.539265E-6	-79.104481
1.53931E-6	-84.12289
1.539355E-6	-87.242281
1.5394E-6	-89.523358
1.539445E-6	-89.808837
1.53949E-6	-91.210763
1.539535E-6	-87.070797
1.53958E-6	-82.179576
1.539625E-6	-76.959405
1.53967E-6	-74.457532
1.539715E-6	-73.646168
1.53976E-6	-73.610118
1.539805E-6	-73.421795
1.53985E-6	-73.314277
1.539895E-6	-73.498868
1.53994E-6	-73.749964
1.539985E-6	-74.930893
1.54003E-6	-76.959405
1.540075E-6	-80.241548
1.54012E-6	-86.587634
1.540165E-6	-89.04482
1.54021E-6	-120
1.540255E-6	-88.273971
1.5403E-6	-87.942545
1.540345E-6	-85.359578
1.54039E-6	-79.613798
1.540435E-6	-75.619325
1.54048E-6	-73.774751
1.540525E-6	-73.304972
1.54057E-6	-73.292904
1.540615E-6	-73.358283
1.54066E-6	-73.278097
1.540705E-6	-73.503731
1.54075E-6	-73.657243
1.540795E-6	-75.004504
1.54084E-6	-78.598063
1.540885E-6	-82.564902
1.54093E-6	-85.67191
1.540975E-6	-92.3114
1.54102E-6	-96.283781
1.541065E-6	-90.174122
1.54111E-6	-87.370745
1.541155E-6	-86.819367
1.5412E-6	-76.443569
1.541245E-6	-73.865811
1.54129E-6	-73.267026
1.541335E-6	-73.109577
1.54138E-6	-73.086532
1.541425E-6	-72.659206
1.54147E-6	-72.913242
1.541515E-6	-73.228495
1.54156E-6	-73.836295
1.541605E-6	-75.967079
1.54165E-6	-79.710223
1.541695E-6	-84.730149
1.54174E-6	-86.931463
1.541785E-6	-89.168559
1.54183E-6	-120
1.541875E-6	-93.25874
1.54192E-6	-86.631402
1.541965E-6	-80.207249
1.54201E-6	-75.457651
1.542055E-6	-73.37809
1.5421E-6	-72.938799
1.542145E-6	-72.728656
1.54219E-6	-72.69137
1.542235E-6	-72.967086
1.54228E-6	-72.766264
1.542325E-6	-73.157832
1.54237E-6	-74.117283
1.542415E-6	-77.10411
1.54246E-6	-81.193579
1.542505E-6	-85.223001
1.54255E-6	-87.690404
1.542595E-6	-90.965302
1.54264E-6	-90.338583
1.542685E-6	-87.130946
1.54273E-6	-83.385659
1.542775E-6	-78.443604
1.54282E-6	-74.32856
1.542865E-6	-73.113133
1.54291E-6	-72.677671
1.542955E-6	-72.467234
1.543E-6	-72.543008
1.543045E-6	-72.855026
1.54309E-6	-72.621715
1.543135E-6	-73.061851
1.54318E-6	-74.690323
1.543225E-6	-78.557372
1.54327E-6	-82.883615
1.543315E-6	-89.738755
1.54336E-6	-87.552282
1.543405E-6	-89.511699
1.54345E-6	-88.002448
1.543495E-6	-86.671577
1.54354E-6	-82.51192
1.543585E-6	-76.053732
1.54363E-6	-73.512498
1.543675E-6	-72.555505
1.54372E-6	-72.415423
1.543765E-6	-72.814153
1.54381E-6	-72.353009
1.543855E-6	-72.404077
1.5439E-6	-72.684918
1.543945E-6	-73.65926
1.54399E-6	-76.103025
1.544035E-6	-79.129288
1.54408E-6	-85.833595
1.544125E-6	-87.6675
1.54417E-6	-92.731099
1.544215E-6	-92.844981
1.54426E-6	-87.337683
1.544305E-6	-91.674911
1.54435E-6	-80.201331
1.544395E-6	-74.754741
1.54444E-6	-72.89375
1.544485E-6	-72.451931
1.54453E-6	-72.400301
1.544575E-6	-72.451931
1.54462E-6	-72.363474
1.544665E-6	-72.568824
1.54471E-6	-72.563335
1.544755E-6	-73.569423
1.5448E-6	-76.861328
1.544845E-6	-80.787819
1.54489E-6	-85.394028
1.544935E-6	-87.78325
1.54498E-6	-84.390179
1.545025E-6	-80.932879
1.54507E-6	-73.058337
1.545115E-6	-59.726504
1.54516E-6	-46.223296
1.545205E-6	-39.901244
1.54525E-6	-37.791078
1.545295E-6	-37.31422
1.54534E-6	-37.198771
1.545385E-6	-37.18285
1.54543E-6	-37.205612
1.545475E-6	-37.637147
1.54552E-6	-39.714287
1.545565E-6	-44.808285
1.54561E-6	-54.336804
1.545655E-6	-63.136319
1.5457E-6	-70.295601
1.545745E-6	-77.115272
1.54579E-6	-80.81236
1.545835E-6	-85.326879
1.54588E-6	-84.446637
1.545925E-6	-82.012803
1.54597E-6	-76.0206
1.546015E-6	-73.323603
1.54606E-6	-72.449641
1.546105E-6	-72.265061
1.54615E-6	-72.186755
1.546195E-6	-72.243168
1.54624E-6	-72.17026
1.546285E-6	-72.163108
1.54633E-6	-72.865095
1.546375E-6	-75.31505
1.54642E-6	-79.069287
1.546465E-6	-84.470885
1.54651E-6	-93.309622
1.546555E-6	-90.734518
1.5466E-6	-89.20457
1.546645E-6	-89.480761
1.54669E-6	-86.556077
1.546735E-6	-80.094392
1.54678E-6	-74.944431
1.546825E-6	-73.073293
1.54687E-6	-72.436682
1.546915E-6	-72.134615
1.54696E-6	-72.371714
1.547005E-6	-72.231536
1.54705E-6	-72.087305
1.547095E-6	-72.417696
1.54714E-6	-73.464981
1.547185E-6	-76.513058
1.54723E-6	-80.264104
1.547275E-6	-84.847887
1.54732E-6	-90.605307
1.547365E-6	-86.742791
1.54741E-6	-89.488475
1.547455E-6	-90.128702
1.5475E-6	-87.130946
1.547545E-6	-79.136402
1.54759E-6	-74.348608
1.547635E-6	-72.603486
1.54768E-6	-72.295899
1.547725E-6	-72.110543
1.54777E-6	-72.006595
1.547815E-6	-72.138167
1.54786E-6	-72.106308
1.547905E-6	-72.687337
1.54795E-6	-73.951262
1.547995E-6	-77.290884
1.54804E-6	-81.800614
1.548085E-6	-84.958011
1.54813E-6	-89.991323
1.548175E-6	-89.710223
1.54822E-6	-92.295162
1.548265E-6	-92.901367
1.54831E-6	-83.445734
1.548355E-6	-76.611453
1.5484E-6	-73.564486
1.548445E-6	-72.572749
1.54849E-6	-72.232988
1.548535E-6	-72.225732
1.54858E-6	-72.151688
1.548625E-6	-72.083094
1.54867E-6	-72.278984
1.548715E-6	-72.920893
1.54876E-6	-74.590452
1.548805E-6	-78.401322
1.54885E-6	-82.743333
1.548895E-6	-91.640559
1.54894E-6	-86.996219
1.548985E-6	-95.089186
1.54903E-6	-87.392133
1.549075E-6	-85.457651
1.54912E-6	-81.715335
1.549165E-6	-76.099485
1.54921E-6	-73.221194
1.549255E-6	-72.31732
1.5493E-6	-72.351516
1.549345E-6	-72.09363
1.54939E-6	-72.297373
1.549435E-6	-72.143855
1.54948E-6	-72.335872
1.549525E-6	-73.05044
1.54957E-6	-75.30178
1.549615E-6	-79.438577
1.54966E-6	-82.410125
1.549705E-6	-86.540385
1.54975E-6	-86.685727
1.549795E-6	-83.058337
1.54984E-6	-76.501399
1.549885E-6	-68.239087
1.54993E-6	-51.919917
1.549975E-6	-41.848209
1.55002E-6	-38.347557
1.550065E-6	-37.21475
1.55011E-6	-37.031155
1.550155E-6	-37.028963
1.5502E-6	-36.987529
1.550245E-6	-37.037737
1.55029E-6	-37.886124
1.550335E-6	-40.853924
1.55038E-6	-47.9588
1.550425E-6	-58.867253
1.55047E-6	-66.138579
1.550515E-6	-72.911544
1.55056E-6	-79.554602
1.550605E-6	-82.6946
1.55065E-6	-85.992894
1.550695E-6	-85.386516
1.55074E-6	-79.30702
1.550785E-6	-74.596705
1.55083E-6	-72.607442
1.550875E-6	-72.136035
1.55092E-6	-71.932097
1.550965E-6	-71.971579
1.55101E-6	-71.908445
1.551055E-6	-71.91789
1.5511E-6	-72.196827
1.551145E-6	-73.361107
1.55119E-6	-75.9176
1.551235E-6	-80.204972
1.55128E-6	-85.561115
1.551325E-6	-88.133261
1.55137E-6	-120
1.551415E-6	-89.314431
1.55146E-6	-87.726276
1.551505E-6	-84.46117
1.55155E-6	-78.213108
1.551595E-6	-73.871102
1.55164E-6	-72.335128
1.551685E-6	-71.919241
1.55173E-6	-71.907097
1.551775E-6	-71.937522
1.55182E-6	-72.114074
1.551865E-6	-71.832286
1.55191E-6	-72.141721
1.551955E-6	-73.589227
1.552E-6	-77.039933
1.552045E-6	-80.955008
1.55209E-6	-85.90405
1.552135E-6	-86.530605
1.55218E-6	-87.380238
1.552225E-6	-90.150229
1.55227E-6	-120
1.552315E-6	-83.056581
1.55236E-6	-76.313413
1.552405E-6	-73.455347
1.55245E-6	-72.195387
1.552495E-6	-71.951793
1.55254E-6	-71.920593
1.552585E-6	-71.837587
1.55263E-6	-71.853529
1.552675E-6	-71.66152
1.55272E-6	-72.238802
1.552765E-6	-73.95882
1.55281E-6	-77.432823
1.552855E-6	-81.669805
1.5529E-6	-87.068585
1.552945E-6	-104.463597
1.55299E-6	-88.774565
1.553035E-6	-86.558043
1.55308E-6	-92.406344
1.553125E-6	-82.460341
1.55317E-6	-76.22876
1.553215E-6	-73.035562
1.55326E-6	-72.134615
1.553305E-6	-71.793389
1.55335E-6	-71.617178
1.553395E-6	-71.708249
1.55344E-6	-71.567672
1.553485E-6	-71.742494
1.55353E-6	-72.298847
1.553575E-6	-74.188471
1.55362E-6	-77.627077
1.553665E-6	-81.898347
1.55371E-6	-88.041003
1.553755E-6	-88.607508
1.5538E-6	-107.89414
1.553845E-6	-86.759234
1.55389E-6	-96.250684
1.553935E-6	-81.926003
1.55398E-6	-75.306199
1.554025E-6	-72.620127
1.55407E-6	-71.910467
1.554115E-6	-71.713401
1.55416E-6	-71.558336
1.554205E-6	-71.627905
1.55425E-6	-71.548399
1.554295E-6	-71.558958
1.55434E-6	-72.223557
1.554385E-6	-74.451476
1.55443E-6	-79.531148
1.554475E-6	-82.855026
1.55452E-6	-90.293278
1.554565E-6	-91.283687
1.55461E-6	-87.74174
1.554655E-6	-93.229408
1.5547E-6	-86.74074
1.554745E-6	-81.442386
1.55479E-6	-74.847887
1.554835E-6	-72.523552
1.55488E-6	-71.73666
1.554925E-6	-71.63486
1.55497E-6	-71.44905
1.555015E-6	-71.424866
1.55506E-6	-71.593921
1.555105E-6	-71.62601
1.55515E-6	-72.364223
1.555195E-6	-74.417716
1.55524E-6	-79.215432
1.555285E-6	-83.164127
1.55533E-6	-89.75104
1.555375E-6	-89.175737
1.55542E-6	-90.474013
1.555465E-6	-101.324147
1.55551E-6	-88.761484
1.555555E-6	-80.170507
1.5556E-6	-74.66355
1.555645E-6	-72.348532
1.55569E-6	-71.593294
1.555735E-6	-71.406215
1.55578E-6	-71.367961
1.555825E-6	-71.359638
1.55587E-6	-71.420647
1.555915E-6	-71.587031
1.55596E-6	-72.233714
1.556005E-6	-74.917397
1.55605E-6	-78.395315
1.556095E-6	-84.186193
1.55614E-6	-86.607474
1.556185E-6	-90.398147
1.55623E-6	-90.686438
1.556275E-6	-96.278247
1.55632E-6	-86.639407
1.556365E-6	-80.032695
1.55641E-6	-74.27942
1.556455E-6	-72.014184
1.5565E-6	-71.536629
1.556545E-6	-71.406815
1.55659E-6	-71.311793
1.556635E-6	-71.408617
1.55668E-6	-71.463018
1.556725E-6	-71.412824
1.55677E-6	-72.180293
1.556815E-6	-75.218666
1.55686E-6	-78.495506
1.556905E-6	-85.234582
1.55695E-6	-86.513058
1.556995E-6	-120
1.55704E-6	-97.867479
1.557085E-6	-84.169146
1.55713E-6	-86.575773
1.557175E-6	-79.956786
1.55722E-6	-74.339162
1.557265E-6	-72.133195
1.55731E-6	-71.627905
1.557355E-6	-71.389438
1.5574E-6	-71.435732
1.557445E-6	-71.329452
1.55749E-6	-71.440571
1.557535E-6	-71.460586
1.55758E-6	-72.367967
1.557625E-6	-74.695442
1.55767E-6	-78.632794
1.557715E-6	-84.960732
1.55776E-6	-87.966951
1.557805E-6	-87.923656
1.55785E-6	-90.200421
1.557895E-6	-88.897471
1.55794E-6	-85.422695
1.557985E-6	-79.677843
1.55803E-6	-74.384216
1.558075E-6	-72.196827
1.55812E-6	-71.555228
1.558165E-6	-71.450263
1.55821E-6	-71.442992
1.558255E-6	-71.581402
1.5583E-6	-71.375108
1.558345E-6	-71.499667
1.55839E-6	-72.430598
1.558435E-6	-74.988038
1.55848E-6	-79.430951
1.558525E-6	-85.185574
1.55857E-6	-90.089069
1.558615E-6	-89.411945
1.55866E-6	-93.100699
1.558705E-6	-100.861861
1.55875E-6	-87.039933
1.558795E-6	-80.261797
1.55884E-6	-74.181641
1.558885E-6	-72.245352
1.55893E-6	-71.734717
1.558975E-6	-71.56269
1.55902E-6	-71.573908
1.559065E-6	-71.69668
1.55911E-6	-71.647535
1.559155E-6	-71.787486
1.5592E-6	-72.642415
1.559245E-6	-75.187007
1.55929E-6	-78.931295
1.559335E-6	-83.756148
1.55938E-6	-89.527251
1.559425E-6	-89.863203
1.55947E-6	-89.871628
1.559515E-6	-91.349553
1.55956E-6	-86.048484
1.559605E-6	-80.563077
1.55965E-6	-74.817493
1.559695E-6	-72.533658
1.55974E-6	-71.886932
1.559785E-6	-71.91384
1.55983E-6	-71.696038
1.559875E-6	-71.828314
1.55992E-6	-71.936165
1.559965E-6	-72.005905
1.56001E-6	-72.802545
1.560055E-6	-75.343198
1.5601E-6	-79.347939
1.560145E-6	-84.846561
1.56019E-6	-91.505192
1.560235E-6	-92.116195
1.56028E-6	-88.716007
1.560325E-6	-87.942545
1.56037E-6	-91.251125
1.560415E-6	-80.056388
1.56046E-6	-74.826721
1.560505E-6	-72.827457
1.56055E-6	-72.193947
1.560595E-6	-72.233714
1.56064E-6	-72.120439
1.560685E-6	-72.04259
1.56073E-6	-72.077484
1.560775E-6	-72.258481
1.56082E-6	-73.053071
1.560865E-6	-75.341712
1.56091E-6	-79.027427
1.560955E-6	-84.375882
1.561E-6	-87.953375
1.561045E-6	-89.19013
1.56109E-6	-86.996219
1.561135E-6	-87.380238
1.56118E-6	-90.05991
1.561225E-6	-81.525507
1.56127E-6	-74.664821
1.561315E-6	-73.475603
1.56136E-6	-72.88699
1.561405E-6	-72.61061
1.56145E-6	-72.525882
1.561495E-6	-72.54769
1.56154E-6	-72.60665
1.561585E-6	-72.85838
1.56163E-6	-73.347005
1.561675E-6	-75.662302
1.56172E-6	-79.681877
1.561765E-6	-83.732491
1.56181E-6	-88.210231
1.561855E-6	-88.703101
1.5619E-6	-86.170829
1.561945E-6	-90.597824
1.56199E-6	-88.329782
1.562035E-6	-81.848873
1.56208E-6	-76.017127
1.562125E-6	-74.073792
1.56217E-6	-73.225756
1.562215E-6	-72.92515
1.56226E-6	-72.940508
1.562305E-6	-72.926854
1.56235E-6	-73.188493
1.562395E-6	-73.282719
1.56244E-6	-73.794476
1.562485E-6	-75.785606
1.56253E-6	-78.837244
1.562575E-6	-83.391345
1.56262E-6	-86.792308
1.562665E-6	-88.057633
1.56271E-6	-88.541823
1.562755E-6	-120
1.5628E-6	-90.791986
1.562845E-6	-82.477978
1.56289E-6	-78.035475
1.562935E-6	-74.721124
1.56298E-6	-73.663296
1.563025E-6	-73.390397
1.56307E-6	-73.674415
1.563115E-6	-73.347944
1.56316E-6	-73.639135
1.563205E-6	-73.679478
1.56325E-6	-74.196453
1.563295E-6	-76.236056
1.56334E-6	-79.115095
1.563385E-6	-83.778896
1.56343E-6	-87.478754
1.563475E-6	-96.313413
1.56352E-6	-88.585502
1.563565E-6	-90.643416
1.56361E-6	-114.821446
1.563655E-6	-84.497716
1.5637E-6	-79.136402
1.563745E-6	-75.149888
1.56379E-6	-74.426131
1.563835E-6	-74.207882
1.56388E-6	-74.043936
1.563925E-6	-74.087127
1.56397E-6	-74.259687
1.564015E-6	-74.024145
1.56406E-6	-74.584208
1.564105E-6	-76.247023
1.56415E-6	-79.30702
1.564195E-6	-83.997897
1.56424E-6	-92.273116
1.564285E-6	-120
1.56433E-6	-87.162466
1.564375E-6	-98.124793
1.56442E-6	-92.594794
1.564465E-6	-85.795491
1.56451E-6	-80.209527
1.564555E-6	-76.558043
1.5646E-6	-74.689045
1.564645E-6	-74.971634
1.56469E-6	-74.851867
1.564735E-6	-74.859838
1.56478E-6	-74.594203
1.564825E-6	-74.817493
1.56487E-6	-75.172693
1.564915E-6	-76.697892
1.56496E-6	-79.465374
1.565005E-6	-83.77786
1.56505E-6	-92.546909
1.565095E-6	-92.594005
1.56514E-6	-120
1.565185E-6	-90.267336
1.56523E-6	-93.887016
1.565275E-6	-84.537042
1.56532E-6	-81.35311
1.565365E-6	-77.2262
1.56541E-6	-75.556429
1.565455E-6	-75.176982
1.5655E-6	-75.144205
1.565545E-6	-75.49443
1.56559E-6	-75.064026
1.565635E-6	-75.553308
1.56568E-6	-75.655908
1.565725E-6	-77.428016
1.56577E-6	-79.19013
1.565815E-6	-84.139756
1.56586E-6	-85.646335
1.565905E-6	-89.685915
1.56595E-6	-89.400581
1.565995E-6	-92.232262
1.56604E-6	-89.347939
1.566085E-6	-87.880789
1.56613E-6	-83.635121
1.566175E-6	-78.629625
1.56622E-6	-76.464684
1.566265E-6	-75.9176
1.56631E-6	-75.676722
1.566355E-6	-76.124322
1.5664E-6	-76.154674
1.566445E-6	-75.898979
1.56649E-6	-76.418747
1.566535E-6	-77.10634
1.56658E-6	-79.438577
1.566625E-6	-83.677452
1.56667E-6	-87.373117
1.566715E-6	-94.55932
1.56676E-6	-88.262312
1.566805E-6	-91.880231
1.56685E-6	-89.653715
1.566895E-6	-88.787685
1.56694E-6	-84.391373
1.566985E-6	-81.345407
1.56703E-6	-77.481185
1.567075E-6	-76.487837
1.56712E-6	-76.399749
1.567165E-6	-76.491707
1.56721E-6	-77.110804
1.567255E-6	-76.665527
1.5673E-6	-76.863437
1.567345E-6	-77.318903
1.56739E-6	-79.566377
1.567435E-6	-82.101374
1.56748E-6	-89.336741
1.567525E-6	-92.403322
1.56757E-6	-97.632109
1.567615E-6	-120
1.56766E-6	-89.698052
1.567705E-6	-91.976368
1.56775E-6	-84.616777
1.567795E-6	-81.567049
1.56784E-6	-78.667805
1.567885E-6	-77.10634
1.56793E-6	-77.055338
1.567975E-6	-77.110804
1.56802E-6	-77.587026
1.568065E-6	-77.664962
1.56811E-6	-77.746907
1.568155E-6	-78.632794
1.5682E-6	-79.554602
1.568245E-6	-83.018995
1.56829E-6	-87.983298
1.568335E-6	-95.62408
1.56838E-6	-120
1.568425E-6	-120
1.56847E-6	-88.632794
1.568515E-6	-87.544873
1.56856E-6	-92.280453
1.568605E-6	-82.983457
1.56865E-6	-79.476909
1.568695E-6	-78.774565
1.56874E-6	-77.564659
1.568785E-6	-77.721133
1.56883E-6	-77.235382
1.568875E-6	-77.988761
1.56892E-6	-77.87546
1.568965E-6	-78.604357
1.56901E-6	-79.905491
1.569055E-6	-81.54964
1.5691E-6	-87.609509
1.569145E-6	-89.850597
1.56919E-6	-87.344747
1.569235E-6	-87.859513
1.56928E-6	-120
1.569325E-6	-86.88458
1.56937E-6	-90.882034
1.569415E-6	-83.556599
1.56946E-6	-81.533537
1.569505E-6	-79.389247
1.56955E-6	-78.847224
1.569595E-6	-78.623295
1.56964E-6	-78.732194
1.569685E-6	-78.751699
1.56973E-6	-78.735439
1.569775E-6	-79.072794
1.56982E-6	-80.056388
1.569865E-6	-83.537924
1.56991E-6	-86.181632
1.569955E-6	-94.691602
1.57E-6	-89.694003
