Wavelength (nm)	Power (dBm)
1.525E-6	-78.273971
1.525045E-6	-78.190144
1.52509E-6	-78.626459
1.525135E-6	-80.164639
1.52518E-6	-82.850838
1.525225E-6	-85.309147
1.52527E-6	-90.093504
1.525315E-6	-84.653394
1.52536E-6	-88.683813
1.525405E-6	-88.604357
1.52545E-6	-87.953375
1.525495E-6	-82.973972
1.52554E-6	-79.465374
1.525585E-6	-77.602002
1.52563E-6	-77.130946
1.525675E-6	-76.991872
1.52572E-6	-76.36388
1.525765E-6	-76.280091
1.52581E-6	-76.509168
1.525855E-6	-76.712128
1.5259E-6	-78.431481
1.525945E-6	-80.555173
1.52599E-6	-84.266642
1.526035E-6	-87.258422
1.52608E-6	-93.568435
1.526125E-6	-88.92112
1.52617E-6	-90.615303
1.526215E-6	-85.757719
1.52626E-6	-84.704413
1.526305E-6	-78.703101
1.52635E-6	-76.333903
1.526395E-6	-75.325399
1.52644E-6	-75.550189
1.526485E-6	-75.162701
1.52653E-6	-75.343198
1.526575E-6	-74.990778
1.52662E-6	-75.089186
1.526665E-6	-76.221476
1.52671E-6	-79.419538
1.526755E-6	-82.396529
1.5268E-6	-85.397037
1.526845E-6	-102.173124
1.52689E-6	-90.814455
1.526935E-6	-88.784402
1.52698E-6	-86.651443
1.527025E-6	-84.443011
1.52707E-6	-78.880657
1.527115E-6	-76.217839
1.52716E-6	-74.749552
1.527205E-6	-74.314463
1.52725E-6	-73.358283
1.527295E-6	-73.957739
1.52734E-6	-73.771645
1.527385E-6	-73.799681
1.52743E-6	-74.792545
1.527475E-6	-77.32359
1.52752E-6	-80.544329
1.527565E-6	-84.398542
1.52761E-6	-91.834936
1.527655E-6	-89.295927
1.5277E-6	-87.242281
1.527745E-6	-90.564066
1.52779E-6	-86.397854
1.527835E-6	-80.348454
1.52788E-6	-74.932245
1.527925E-6	-73.707943
1.52797E-6	-73.238553
1.528015E-6	-73.005959
1.52806E-6	-73.012907
1.528105E-6	-72.690563
1.52815E-6	-72.985184
1.528195E-6	-73.467875
1.52824E-6	-75.463759
1.528285E-6	-78.982529
1.52833E-6	-84.496493
1.528375E-6	-87.050931
1.52842E-6	-90.518316
1.528465E-6	-87.249191
1.52851E-6	-88.150248
1.528555E-6	-85.992894
1.5286E-6	-80.413406
1.528645E-6	-75.106041
1.52869E-6	-72.967946
1.528735E-6	-72.423763
1.52878E-6	-72.233714
1.528825E-6	-72.148838
1.52887E-6	-72.069783
1.528915E-6	-72.183164
1.52896E-6	-72.420728
1.529005E-6	-73.716111
1.52905E-6	-77.375489
1.529095E-6	-80.292813
1.52914E-6	-85.600361
1.529185E-6	-87.878124
1.52923E-6	-89.28118
1.529275E-6	-88.794261
1.52932E-6	-88.195874
1.529365E-6	-82.469534
1.52941E-6	-75.734887
1.529455E-6	-73.10336
1.5295E-6	-71.799957
1.529545E-6	-71.552744
1.52959E-6	-71.606477
1.529635E-6	-71.516877
1.52968E-6	-71.470323
1.529725E-6	-71.512568
1.52977E-6	-72.389747
1.529815E-6	-74.949858
1.52986E-6	-78.458805
1.529905E-6	-85.011383
1.52995E-6	-91.723723
1.529995E-6	-88.461851
1.53004E-6	-113.77786
1.530085E-6	-86.708056
1.53013E-6	-85.406075
1.530175E-6	-76.560009
1.53022E-6	-73.043432
1.530265E-6	-71.575156
1.53031E-6	-71.268538
1.530355E-6	-71.17988
1.5304E-6	-71.148085
1.530445E-6	-71.173616
1.53049E-6	-71.148085
1.530535E-6	-71.678105
1.53058E-6	-73.505678
1.530625E-6	-77.384992
1.53067E-6	-81.537248
1.530715E-6	-84.87449
1.53076E-6	-87.307206
1.530805E-6	-87.068585
1.53085E-6	-92.626483
1.530895E-6	-85.236032
1.53094E-6	-78.894103
1.530985E-6	-73.930815
1.53103E-6	-71.706962
1.531075E-6	-71.02923
1.53112E-6	-71.003983
1.531165E-6	-70.821795
1.53121E-6	-70.902301
1.531255E-6	-70.855511
1.5313E-6	-71.121015
1.531345E-6	-72.381473
1.53139E-6	-75.991168
1.531435E-6	-79.901244
1.53148E-6	-86.248853
1.531525E-6	-85.883803
1.53157E-6	-90.573472
1.531615E-6	-86.254349
1.53166E-6	-89.838026
1.531705E-6	-82.319542
1.53175E-6	-75.191311
1.531795E-6	-72.178141
1.53184E-6	-71.174755
1.531885E-6	-70.993598
1.53193E-6	-70.925349
1.531975E-6	-70.946899
1.53202E-6	-70.863981
1.532065E-6	-71.091321
1.53211E-6	-71.737956
1.532155E-6	-74.027437
1.5322E-6	-79.168559
1.532245E-6	-83.969639
1.53229E-6	-91.514414
1.532335E-6	-86.706021
1.53238E-6	-86.328305
1.532425E-6	-86.051982
1.53247E-6	-85.421181
1.532515E-6	-77.21475
1.53256E-6	-73.318938
1.532605E-6	-71.592041
1.53265E-6	-71.000154
1.532695E-6	-71.001248
1.53274E-6	-70.983782
1.532785E-6	-71.058502
1.53283E-6	-70.717578
1.532875E-6	-71.44905
1.53292E-6	-73.152444
1.532965E-6	-77.461776
1.53301E-6	-81.071266
1.533055E-6	-87.081873
1.5331E-6	-88.121974
1.533145E-6	-89.104481
1.53319E-6	-88.4649
1.533235E-6	-87.318903
1.53328E-6	-81.164521
1.533325E-6	-75.218666
1.53337E-6	-72.587696
1.533415E-6	-71.62033
1.53346E-6	-71.508878
1.533505E-6	-71.400815
1.53355E-6	-71.743143
1.533595E-6	-71.803903
1.53364E-6	-71.974315
1.533685E-6	-73.101586
1.53373E-6	-75.581478
1.533775E-6	-78.938091
1.53382E-6	-84.203307
1.533865E-6	-89.30702
1.53391E-6	-86.806857
1.533955E-6	-86.460838
1.534E-6	-86.474316
1.534045E-6	-83.221194
1.53409E-6	-77.549811
1.534135E-6	-74.22853
1.53418E-6	-72.839131
1.534225E-6	-72.334384
1.53427E-6	-72.362726
1.534315E-6	-72.446588
1.53436E-6	-72.395021
1.534405E-6	-72.575891
1.53445E-6	-72.970528
1.534495E-6	-74.847887
1.53454E-6	-78.658229
1.534585E-6	-82.878556
1.53463E-6	-86.095948
1.534675E-6	-91.376301
1.53472E-6	-89.527251
1.534765E-6	-91.904403
1.53481E-6	-89.299621
1.534855E-6	-81.37332
1.5349E-6	-75.991168
1.534945E-6	-74.120647
1.53499E-6	-73.289198
1.535035E-6	-73.068889
1.53508E-6	-73.377145
1.535125E-6	-73.390397
1.53517E-6	-73.068009
1.535215E-6	-73.494011
1.53526E-6	-74.430947
1.535305E-6	-77.121983
1.53535E-6	-80.776379
1.535395E-6	-85.476002
1.53544E-6	-85.949953
1.535485E-6	-88.121974
1.53553E-6	-84.713404
1.535575E-6	-79.111554
1.53562E-6	-65.450028
1.535665E-6	-51.958606
1.53571E-6	-45.533075
1.535755E-6	-43.542831
1.5358E-6	-43.136319
1.535845E-6	-43.136319
1.53589E-6	-43.281794
1.535935E-6	-43.379981
1.53598E-6	-43.983745
1.536025E-6	-46.367642
1.53607E-6	-51.407416
1.536115E-6	-62.014184
1.53616E-6	-69.28118
1.536205E-6	-77.366007
1.53625E-6	-81.249387
1.536295E-6	-84.241197
1.53634E-6	-86.294869
1.536385E-6	-85.643149
1.53643E-6	-81.335354
1.536475E-6	-77.088532
1.53652E-6	-75.233133
1.536565E-6	-74.31329
1.53661E-6	-74.750849
1.536655E-6	-74.40692
1.5367E-6	-74.502613
1.536745E-6	-74.481842
1.53679E-6	-74.763836
1.536835E-6	-75.646335
1.53688E-6	-79.796387
1.536925E-6	-81.770478
1.53697E-6	-84.771647
1.537015E-6	-87.589518
1.53706E-6	-86.11366
1.537105E-6	-84.687766
1.53715E-6	-79.175737
1.537195E-6	-65.612995
1.53724E-6	-51.857524
1.537285E-6	-46.17983
1.53733E-6	-43.597174
1.537375E-6	-43.162327
1.53742E-6	-43.138108
1.537465E-6	-43.172234
1.53751E-6	-43.23215
1.537555E-6	-43.737623
1.5376E-6	-46.083593
1.537645E-6	-51.092996
1.53769E-6	-61.748986
1.537735E-6	-68.894103
1.53778E-6	-76.850799
1.537825E-6	-80.670192
1.53787E-6	-83.894463
1.537915E-6	-85.999804
1.53796E-6	-86.827727
1.538005E-6	-82.55707
1.53805E-6	-78.677403
1.538095E-6	-75.705707
1.53814E-6	-75.28855
1.538185E-6	-75.208568
1.53823E-6	-75.080783
1.538275E-6	-74.997635
1.53832E-6	-75.001755
1.538365E-6	-75.250557
1.53841E-6	-76.199698
1.538455E-6	-79.574245
1.5385E-6	-82.135325
1.538545E-6	-87.113037
1.53859E-6	-84.675004
1.538635E-6	-86.846595
1.53868E-6	-87.512913
1.538725E-6	-80
1.53877E-6	-68.90759
1.538815E-6	-52.973972
1.53886E-6	-46.728455
1.538905E-6	-43.876401
1.53895E-6	-43.347005
1.538995E-6	-43.268869
1.53904E-6	-43.23215
1.539085E-6	-43.22393
1.53913E-6	-43.59618
1.539175E-6	-45.651119
1.53922E-6	-50.332015
1.539265E-6	-60.589858
1.53931E-6	-69.186527
1.539355E-6	-76.324577
1.5394E-6	-80.835461
1.539445E-6	-84.604221
1.53949E-6	-84.457532
1.539535E-6	-86.651443
1.53958E-6	-82.019021
1.539625E-6	-78.629625
1.53967E-6	-75.597208
1.539715E-6	-75.252012
1.53976E-6	-74.49894
1.539805E-6	-74.659739
1.53985E-6	-74.744369
1.539895E-6	-74.548166
1.53994E-6	-75.097605
1.539985E-6	-75.686362
1.54003E-6	-78.632794
1.540075E-6	-81.966112
1.54012E-6	-85.936302
1.540165E-6	-89.601894
1.54021E-6	-87.964232
1.540255E-6	-85.587763
1.5403E-6	-81.172478
1.540345E-6	-70.774821
1.54039E-6	-54.225082
1.540435E-6	-47.33298
1.54048E-6	-44.108326
1.540525E-6	-43.402739
1.54057E-6	-43.226668
1.540615E-6	-43.164127
1.54066E-6	-43.137213
1.540705E-6	-43.418932
1.54075E-6	-45.224447
1.540795E-6	-49.484616
1.54084E-6	-58.999743
1.540885E-6	-67.682756
1.54093E-6	-74.964817
1.540975E-6	-79.884296
1.54102E-6	-83.296614
1.541065E-6	-86.120765
1.54111E-6	-85.519123
1.541155E-6	-83.444774
1.5412E-6	-78.380334
1.541245E-6	-75.404567
1.54129E-6	-74.543219
1.541335E-6	-74.263163
1.54138E-6	-74.187332
1.541425E-6	-74.273607
1.54147E-6	-74.050553
1.541515E-6	-74.251588
1.54156E-6	-75.237482
1.541605E-6	-76.981023
1.54165E-6	-80.560605
1.541695E-6	-85.111674
1.54174E-6	-87.14893
1.541785E-6	-87.173779
1.54183E-6	-84.443011
1.541875E-6	-82.718898
1.54192E-6	-73.147959
1.541965E-6	-56.158259
1.54201E-6	-48.052082
1.542055E-6	-44.319157
1.5421E-6	-43.373366
1.542145E-6	-43.177646
1.54219E-6	-43.147062
1.542235E-6	-43.069769
1.54228E-6	-43.207539
1.542325E-6	-44.451476
1.54237E-6	-48.124793
1.542415E-6	-55.853609
1.54246E-6	-64.858509
1.542505E-6	-72.896287
1.54255E-6	-79.500071
1.542595E-6	-83.026835
1.54264E-6	-88.041003
1.542685E-6	-86.36388
1.54273E-6	-84.799097
1.542775E-6	-79.605859
1.54282E-6	-75.611413
1.542865E-6	-73.994627
1.54291E-6	-73.687592
1.542955E-6	-73.867926
1.543E-6	-73.709984
1.543045E-6	-73.644157
1.54309E-6	-73.653212
1.543135E-6	-73.821613
1.54318E-6	-76.163641
1.543225E-6	-79.578184
1.54327E-6	-83.109577
1.543315E-6	-120
1.54336E-6	-87.018021
1.543405E-6	-86.920763
1.54345E-6	-82.975695
1.543495E-6	-76.420652
1.54354E-6	-60.94852
1.543585E-6	-49.804683
1.54363E-6	-44.901257
1.543675E-6	-43.459198
1.54372E-6	-43.134531
1.543765E-6	-43.083881
1.54381E-6	-43.080349
1.543855E-6	-43.127387
1.5439E-6	-43.950184
1.543945E-6	-46.827727
1.54399E-6	-52.981731
1.544035E-6	-61.886932
1.54408E-6	-70.813407
1.544125E-6	-78.523237
1.54417E-6	-81.952474
1.544215E-6	-83.911532
1.54426E-6	-88.616973
1.544305E-6	-86.163641
1.54435E-6	-79.838026
1.544395E-6	-76.111886
1.54444E-6	-74.149907
1.544485E-6	-73.496925
1.54453E-6	-73.383766
1.544575E-6	-73.335756
1.54462E-6	-73.472703
1.544665E-6	-73.244966
1.54471E-6	-73.711004
1.544755E-6	-74.771647
1.5448E-6	-78.046539
1.544845E-6	-80.667659
1.54489E-6	-84.712118
1.544935E-6	-84.546929
1.54498E-6	-88.495506
1.545025E-6	-84.444219
1.54507E-6	-79.669786
1.545115E-6	-65.746288
1.54516E-6	-52.248995
1.545205E-6	-46.430186
1.54525E-6	-43.701828
1.545295E-6	-43.187588
1.54534E-6	-43.127387
1.545385E-6	-43.085648
1.54543E-6	-43.088301
1.545475E-6	-43.485281
1.54552E-6	-45.373026
1.545565E-6	-49.943906
1.54561E-6	-59.434763
1.545655E-6	-68.08549
1.5457E-6	-75.392525
1.545745E-6	-80.050673
1.54579E-6	-85.400047
1.545835E-6	-120
1.54588E-6	-90.497325
1.545925E-6	-83.091839
1.54597E-6	-76.852903
1.546015E-6	-74.149907
1.54606E-6	-73.423706
1.546105E-6	-73.435185
1.54615E-6	-73.25966
1.546195E-6	-73.187588
1.54624E-6	-73.142583
1.546285E-6	-73.34044
1.54633E-6	-74.119525
1.546375E-6	-76.219657
1.54642E-6	-79.19013
1.546465E-6	-83.719177
1.54651E-6	-87.035542
1.546555E-6	-86.893067
1.5466E-6	-85.797141
1.546645E-6	-81.880231
1.54669E-6	-73.316141
1.546735E-6	-57.057543
1.54678E-6	-48.461851
1.546825E-6	-44.385408
1.54687E-6	-43.33482
1.546915E-6	-43.118472
1.54696E-6	-43.100699
1.547005E-6	-43.084765
1.54705E-6	-43.195738
1.547095E-6	-44.321505
1.54714E-6	-47.827793
1.547185E-6	-54.9026
1.54723E-6	-64.078232
1.547275E-6	-72.344059
1.54732E-6	-79.255493
1.547365E-6	-82.396529
1.54741E-6	-85.883803
1.547455E-6	-86.798537
1.5475E-6	-85.958508
1.547545E-6	-78.860566
1.54759E-6	-75.395532
1.547635E-6	-73.494011
1.54768E-6	-73.2413
1.547725E-6	-73.332013
1.54777E-6	-73.301255
1.547815E-6	-73.112243
1.54786E-6	-73.275327
1.547905E-6	-73.505678
1.54795E-6	-75.084982
1.547995E-6	-78.428456
1.54804E-6	-81.868862
1.548085E-6	-84.040631
1.54813E-6	-85.26659
1.548175E-6	-86.78816
1.54822E-6	-83.649186
1.548265E-6	-78.37137
1.54831E-6	-64.125135
1.548355E-6	-51.271448
1.5484E-6	-45.517576
1.548445E-6	-43.628106
1.54849E-6	-43.22393
1.548535E-6	-43.147959
1.54858E-6	-43.141687
1.548625E-6	-43.157832
1.54867E-6	-43.577334
1.548715E-6	-45.657505
1.54876E-6	-50.483226
1.548805E-6	-60.595333
1.54885E-6	-69.076303
1.548895E-6	-76.165437
1.54894E-6	-80.951763
1.548985E-6	-85.595632
1.54903E-6	-88.065971
1.549075E-6	-86.697892
1.54912E-6	-82.680086
1.549165E-6	-76.695862
1.54921E-6	-74.483061
1.549255E-6	-73.501785
1.5493E-6	-73.275327
1.549345E-6	-73.097153
1.54939E-6	-73.073293
1.549435E-6	-73.126494
1.54948E-6	-73.271635
1.549525E-6	-74.011001
1.54957E-6	-76.129663
1.549615E-6	-78.635966
1.54966E-6	-81.926003
1.549705E-6	-84.48428
1.54975E-6	-86.051982
1.549795E-6	-85.36555
1.54984E-6	-83.995717
1.549885E-6	-74.31329
1.54993E-6	-58.569852
1.549975E-6	-48.703101
1.55002E-6	-44.472101
1.550065E-6	-43.425617
1.55011E-6	-43.199366
1.550155E-6	-43.138108
1.5502E-6	-43.157832
1.550245E-6	-43.210266
1.55029E-6	-43.99136
1.550335E-6	-46.91009
1.55038E-6	-53.100699
1.550425E-6	-62.258481
1.55047E-6	-70.922126
1.550515E-6	-77.827793
1.55056E-6	-87.057543
1.550605E-6	-86.332036
1.55065E-6	-83.877461
1.550695E-6	-87.328283
1.55074E-6	-80.414839
1.550785E-6	-75.736514
1.55083E-6	-73.73044
1.550875E-6	-73.320803
1.55092E-6	-73.088301
1.550965E-6	-73.284569
1.55101E-6	-73.008563
1.551055E-6	-73.115802
1.5511E-6	-73.210266
1.551145E-6	-74.20445
1.55119E-6	-77.283907
1.551235E-6	-80.761345
1.55128E-6	-83.921163
1.551325E-6	-86.813107
1.55137E-6	-87.594508
1.551415E-6	-85.979106
1.55146E-6	-80.702746
1.551505E-6	-69.931063
1.55155E-6	-53.663296
1.551595E-6	-47.099654
1.55164E-6	-44.011001
1.551685E-6	-43.341377
1.55173E-6	-43.262421
1.551775E-6	-43.243133
1.55182E-6	-43.212086
1.551865E-6	-43.429441
1.55191E-6	-44.89187
1.551955E-6	-49.020489
1.552E-6	-57.189666
1.552045E-6	-66.183435
1.55209E-6	-74.027437
1.552135E-6	-79.303319
1.55218E-6	-84.113922
1.552225E-6	-86.722325
1.55227E-6	-88.894103
1.552315E-6	-84.334447
1.55236E-6	-78.259402
1.552405E-6	-74.712118
1.55245E-6	-73.240385
1.552495E-6	-73.074174
1.55254E-6	-73.135425
1.552585E-6	-73.079466
1.55263E-6	-72.889524
1.552675E-6	-73.187588
1.55272E-6	-73.190303
1.552765E-6	-74.913356
1.55281E-6	-78.787685
1.552855E-6	-82.468001
1.5529E-6	-84.414114
1.552945E-6	-84.832003
1.55299E-6	-84.356891
1.553035E-6	-82.679281
1.55308E-6	-78.467951
1.553125E-6	-63.511523
1.55317E-6	-50.849169
1.553215E-6	-45.16698
1.55326E-6	-43.448616
1.553305E-6	-43.086532
1.55335E-6	-43.007695
1.553395E-6	-42.974833
1.55344E-6	-42.962788
1.553485E-6	-43.399888
1.55353E-6	-45.472938
1.553575E-6	-50.152927
1.55362E-6	-60.019587
1.553665E-6	-68.294449
1.55371E-6	-75.872036
1.553755E-6	-80.467237
1.5538E-6	-84.890531
1.553845E-6	-84.57299
1.55389E-6	-88.288588
1.553935E-6	-81.712113
1.55398E-6	-76.470461
1.554025E-6	-73.684548
1.55407E-6	-73.084765
1.554115E-6	-72.69137
1.55416E-6	-72.709162
1.554205E-6	-72.787666
1.55425E-6	-72.796753
1.554295E-6	-72.876029
1.55434E-6	-73.324537
1.554385E-6	-75.439378
1.55443E-6	-78.306195
1.554475E-6	-82.550033
1.55452E-6	-87.153437
1.554565E-6	-86.78816
1.55461E-6	-85.710557
1.554655E-6	-82.633645
1.5547E-6	-75.456125
1.554745E-6	-60.305375
1.55479E-6	-49.325572
1.554835E-6	-44.655931
1.55488E-6	-43.383766
1.554925E-6	-43.112243
1.55497E-6	-43.044308
1.555015E-6	-43.043432
1.55506E-6	-43.067128
1.555105E-6	-43.613111
1.55515E-6	-46.008457
1.555195E-6	-51.679384
1.55524E-6	-62.540668
1.555285E-6	-69.303319
1.55533E-6	-77.064165
1.555375E-6	-81.638659
1.55542E-6	-83.608124
1.555465E-6	-85.171264
1.55551E-6	-87.075224
1.555555E-6	-81.312968
1.5556E-6	-75.868679
1.555645E-6	-73.633116
1.55569E-6	-72.709162
1.555735E-6	-72.526659
1.55578E-6	-72.515794
1.555825E-6	-72.522775
1.55587E-6	-72.621715
1.555915E-6	-72.703493
1.55596E-6	-73.494011
1.556005E-6	-76.239708
1.55605E-6	-79.079815
1.556095E-6	-84.524714
1.55614E-6	-87.461776
1.556185E-6	-85.508303
1.55623E-6	-87.878124
1.556275E-6	-81.319436
1.55632E-6	-74.007721
1.556365E-6	-57.144427
1.55641E-6	-48.44664
1.556455E-6	-44.326207
1.5565E-6	-43.312415
1.556545E-6	-43.075938
1.55659E-6	-43.051317
1.556635E-6	-43.07065
1.55668E-6	-43.105136
1.556725E-6	-43.818473
1.55677E-6	-46.554113
1.556815E-6	-52.66161
1.55686E-6	-61.399616
1.556905E-6	-70.124678
1.55695E-6	-78.005191
1.556995E-6	-81.217081
1.55704E-6	-85.234582
1.557085E-6	-86.317131
1.55713E-6	-88.10229
1.557175E-6	-80.982149
1.55722E-6	-75.407583
1.557265E-6	-73.449577
1.55731E-6	-72.88699
1.557355E-6	-72.464935
1.5574E-6	-72.693792
1.557445E-6	-72.714839
1.55749E-6	-72.817475
1.557535E-6	-72.689756
1.55758E-6	-73.708963
1.557625E-6	-76.356366
1.55767E-6	-78.979095
1.557715E-6	-83.852082
1.55776E-6	-86.011923
1.557805E-6	-85.977386
1.55785E-6	-88.016179
1.557895E-6	-81.744441
1.55794E-6	-73.633116
1.557985E-6	-56.287474
1.55803E-6	-48.093882
1.558075E-6	-44.194171
1.55812E-6	-43.165927
1.558165E-6	-42.998157
1.55821E-6	-42.98432
1.558255E-6	-43.016384
1.5583E-6	-43.077702
1.558345E-6	-43.849974
1.55839E-6	-46.790233
1.558435E-6	-52.926854
1.55848E-6	-61.789452
1.558525E-6	-70.506588
1.55857E-6	-78.428456
1.558615E-6	-81.503349
1.55866E-6	-84.492826
1.558705E-6	-86.687752
1.55875E-6	-86.831912
1.558795E-6	-80.970729
1.55884E-6	-75.643149
1.558885E-6	-73.609121
1.55893E-6	-72.884458
1.558975E-6	-72.76134
1.55902E-6	-72.810833
1.559065E-6	-72.914092
1.55911E-6	-72.93709
1.559155E-6	-73.068889
1.5592E-6	-73.975059
1.559245E-6	-76.343249
1.55929E-6	-79.714287
1.559335E-6	-83.725317
1.55938E-6	-86.546263
1.559425E-6	-87.562181
1.55947E-6	-85.057062
1.559515E-6	-82.14955
1.55956E-6	-73.820566
1.559605E-6	-57.171514
1.55965E-6	-48.477117
1.559695E-6	-44.365189
1.55974E-6	-43.28642
1.559785E-6	-43.132744
1.55983E-6	-43.155137
1.559875E-6	-43.210266
1.55992E-6	-43.2615
1.559965E-6	-44.098272
1.56001E-6	-47.037737
1.560055E-6	-53.39514
1.5601E-6	-62.0412
1.560145E-6	-70.984327
1.56019E-6	-78.651856
1.560235E-6	-82.425281
1.56028E-6	-85.270973
1.560325E-6	-87.406451
1.56037E-6	-84.209027
1.560415E-6	-81.213059
1.56046E-6	-76.294869
1.560505E-6	-74.182778
1.56055E-6	-73.447655
1.560595E-6	-73.27625
1.56064E-6	-73.540867
1.560685E-6	-73.205721
1.56073E-6	-73.311484
1.560775E-6	-73.576344
1.56082E-6	-74.393761
1.560865E-6	-76.699923
1.56091E-6	-79.673812
1.560955E-6	-83.290124
1.561E-6	-87.592012
1.561045E-6	-91.735365
1.56109E-6	-88.244882
1.561135E-6	-90.069166
1.56118E-6	-87.867479
1.561225E-6	-81.563935
1.56127E-6	-76.948637
1.561315E-6	-74.433357
1.56136E-6	-73.594192
1.561405E-6	-73.758211
1.56145E-6	-73.806979
1.561495E-6	-73.756148
1.56154E-6	-74.164612
1.561585E-6	-73.84576
1.56163E-6	-74.955291
1.561675E-6	-76.914356
1.56172E-6	-79.143527
1.561765E-6	-86.051982
1.56181E-6	-89.714287
1.561855E-6	-89.438577
1.5619E-6	-88.300318
1.561945E-6	-87.404061
1.56199E-6	-84.374692
1.562035E-6	-83.488189
1.56208E-6	-78.107905
1.562125E-6	-75.486742
1.56217E-6	-74.512422
1.562215E-6	-74.08824
1.56226E-6	-74.308603
1.562305E-6	-74.252744
1.56235E-6	-74.280584
1.562395E-6	-74.404524
1.56244E-6	-74.907975
1.562485E-6	-77.366007
1.56253E-6	-79.75104
1.562575E-6	-84.92414
1.56262E-6	-88.303256
1.562665E-6	-86.641411
1.56271E-6	-86.806857
1.562755E-6	-88.548036
1.5628E-6	-86.088884
1.562845E-6	-83.796557
1.56289E-6	-78.667805
1.562935E-6	-75.956795
1.56298E-6	-75.068209
1.563025E-6	-74.633153
1.56307E-6	-74.604221
1.563115E-6	-74.634416
1.56316E-6	-75.001755
1.563205E-6	-75.079384
1.56325E-6	-75.244741
1.563295E-6	-77.309543
1.56334E-6	-79.582127
1.563385E-6	-84.676279
1.56343E-6	-86.948637
1.563475E-6	-86.208759
1.56352E-6	-89.211808
1.563565E-6	-92.534436
1.56361E-6	-94.115042
1.563655E-6	-85.132862
1.5637E-6	-79.92679
1.563745E-6	-76.33577
1.56379E-6	-75.717032
1.563835E-6	-75.292956
1.56388E-6	-75.383514
1.563925E-6	-75.214335
1.56397E-6	-75.319482
1.564015E-6	-75.395532
1.56406E-6	-75.787252
1.564105E-6	-78.06319
1.56415E-6	-79.673812
1.564195E-6	-83.549709
1.56424E-6	-88.407337
1.564285E-6	-88.843895
1.56433E-6	-86.985359
1.564375E-6	-92.212701
1.56442E-6	-86.534514
1.564465E-6	-88.195874
1.56451E-6	-81.65325
1.564555E-6	-77.759852
1.5646E-6	-76.196078
1.564645E-6	-75.52222
1.56469E-6	-75.803746
1.564735E-6	-75.747919
1.56478E-6	-75.723516
1.564825E-6	-75.836924
1.56487E-6	-76.185239
1.564915E-6	-77.907532
1.56496E-6	-79.469216
1.565005E-6	-83.251389
1.56505E-6	-86.460838
1.565095E-6	-92.423763
1.56514E-6	-90.841255
1.565185E-6	-90.588365
1.56523E-6	-87.864822
1.565275E-6	-85.902359
1.56532E-6	-82.480284
1.565365E-6	-78.227522
1.56541E-6	-76.965879
1.565455E-6	-76.593576
1.5655E-6	-76.36388
1.565545E-6	-77.32359
1.56559E-6	-76.540385
1.565635E-6	-76.714166
1.56568E-6	-76.957249
1.565725E-6	-77.75726
1.56577E-6	-79.913998
1.565815E-6	-83.084765
1.56586E-6	-89.918258
1.565905E-6	-87.798919
1.56595E-6	-89.792245
1.565995E-6	-93.083881
1.56604E-6	-88.613816
1.566085E-6	-85.75445
1.56613E-6	-83.673403
1.566175E-6	-79.779843
1.56622E-6	-77.520267
1.566265E-6	-77.587026
1.56631E-6	-77.530093
1.566355E-6	-77.380238
1.5664E-6	-77.637147
1.566445E-6	-77.723704
1.56649E-6	-77.647241
1.566535E-6	-78.326827
1.56658E-6	-79.75104
1.566625E-6	-83.584267
1.56667E-6	-88.002448
1.566715E-6	-88.880657
1.56676E-6	-90.353162
1.566805E-6	-90.400052
1.56685E-6	-94.205594
1.566895E-6	-96.92504
1.56694E-6	-85.463759
1.566985E-6	-80.90658
1.56703E-6	-78.76475
1.567075E-6	-78.164455
1.56712E-6	-78.068754
1.567165E-6	-77.85421
1.56721E-6	-78.645493
1.567255E-6	-78.082696
1.5673E-6	-78.133261
1.567345E-6	-78.27689
1.56739E-6	-80.126019
1.567435E-6	-83.437101
1.56748E-6	-83.16953
1.567525E-6	-88.362425
1.56757E-6	-86.416844
1.567615E-6	-86.685727
1.56766E-6	-89.143527
1.567705E-6	-89.698052
1.56775E-6	-85.304725
1.567795E-6	-81.891628
1.56784E-6	-79.003194
1.567885E-6	-78.41336
1.56793E-6	-78.674202
1.567975E-6	-78.173001
1.56802E-6	-78.452718
1.568065E-6	-78.850556
1.56811E-6	-78.054857
1.568155E-6	-78.784402
1.5682E-6	-80.394817
1.568245E-6	-83.074174
1.56829E-6	-87.632109
1.568335E-6	-87.4958
1.56838E-6	-90.499274
1.568425E-6	-89.284862
1.56847E-6	-120
1.568515E-6	-93.27625
1.56856E-6	-85.659104
1.568605E-6	-83.981572
1.56865E-6	-81.563935
1.568695E-6	-79.222688
1.56874E-6	-78.941493
1.568785E-6	-78.696662
1.56883E-6	-78.651856
1.568875E-6	-78.452718
1.56892E-6	-78.934691
1.568965E-6	-79.314431
1.56901E-6	-80.190881
1.569055E-6	-82.902214
1.5691E-6	-86.513058
1.569145E-6	-86.599527
1.56919E-6	-120
1.569235E-6	-87.838341
1.56928E-6	-84.570502
1.569325E-6	-90.709389
1.56937E-6	-84.839938
1.569415E-6	-84.445428
1.56946E-6	-81.375704
1.569505E-6	-79.875846
1.56955E-6	-79.850597
1.569595E-6	-79.519468
1.56964E-6	-79.344203
1.569685E-6	-79.948195
1.56973E-6	-79.722428
1.569775E-6	-80.055949
1.56982E-6	-80.213631
1.569865E-6	-82.546129
1.56991E-6	-87.670039
1.569955E-6	-86.14215
1.57E-6	-88.59492
