Wavelength (nm)	Power (dBm)
1.525E-6	-80.040578
1.525045E-6	-79.677843
1.52509E-6	-80.211806
1.525135E-6	-81.227439
1.52518E-6	-85.828606
1.525225E-6	-93.821613
1.52527E-6	-90.439757
1.525315E-6	-91.753536
1.52536E-6	-92.129648
1.525405E-6	-91.65325
1.52545E-6	-89.277501
1.525495E-6	-84.462383
1.52554E-6	-81.510723
1.525585E-6	-79.800533
1.52563E-6	-78.623295
1.525675E-6	-78.401322
1.52572E-6	-78.807441
1.525765E-6	-77.527635
1.52581E-6	-77.406451
1.525855E-6	-78.501653
1.5259E-6	-79.515582
1.525945E-6	-82.471068
1.52599E-6	-86.734593
1.526035E-6	-91.101942
1.52608E-6	-93.590219
1.526125E-6	-88.021683
1.52617E-6	-93.127387
1.526215E-6	-94.968906
1.52626E-6	-87.099654
1.526305E-6	-81.6469
1.52635E-6	-77.4958
1.526395E-6	-76.871882
1.52644E-6	-76.916491
1.526485E-6	-77.447275
1.52653E-6	-76.746896
1.526575E-6	-77.178312
1.52662E-6	-76.187044
1.526665E-6	-77.767637
1.52671E-6	-79.833845
1.526755E-6	-84.489161
1.5268E-6	-89.969705
1.526845E-6	-97.848914
1.52689E-6	-90.164639
1.526935E-6	-92.835793
1.52698E-6	-92.372464
1.527025E-6	-87.180581
1.52707E-6	-81.658973
1.527115E-6	-77.223908
1.52716E-6	-76.126102
1.527205E-6	-76.212388
1.52725E-6	-76.199698
1.527295E-6	-75.888856
1.52734E-6	-76.062494
1.527385E-6	-75.622494
1.52743E-6	-75.998075
1.527475E-6	-78.37137
1.52752E-6	-82.347041
1.527565E-6	-87.682756
1.52761E-6	-91.068488
1.527655E-6	-88.389316
1.5277E-6	-92.639224
1.527745E-6	-92.28633
1.52779E-6	-87.75208
1.527835E-6	-81.632962
1.52788E-6	-76.804776
1.527925E-6	-75.05289
1.52797E-6	-74.903943
1.528015E-6	-74.92414
1.52806E-6	-74.489161
1.528105E-6	-74.701848
1.52815E-6	-74.7379
1.528195E-6	-75.115903
1.52824E-6	-76.961562
1.528285E-6	-79.909743
1.52833E-6	-85.210009
1.528375E-6	-89.779843
1.52842E-6	-120
1.528465E-6	-120
1.52851E-6	-96.952941
1.528555E-6	-89.550685
1.5286E-6	-83.025963
1.528645E-6	-76.79646
1.52869E-6	-74.581712
1.528735E-6	-74.13863
1.52878E-6	-74.100504
1.528825E-6	-73.769576
1.52887E-6	-74.101621
1.528915E-6	-73.833145
1.52896E-6	-73.832095
1.529005E-6	-75.459177
1.52905E-6	-78.535619
1.529095E-6	-82.437444
1.52914E-6	-90.193604
1.529185E-6	-91.345999
1.52923E-6	-101.414628
1.529275E-6	-92.183882
1.52932E-6	-90.034883
1.529365E-6	-84.474535
1.52941E-6	-78.401322
1.529455E-6	-74.822764
1.5295E-6	-74.013189
1.529545E-6	-73.472703
1.52959E-6	-73.275327
1.529635E-6	-73.231236
1.52968E-6	-73.511523
1.529725E-6	-73.458235
1.52977E-6	-74.434563
1.529815E-6	-77.077439
1.52986E-6	-80.125572
1.529905E-6	-85.927791
1.52995E-6	-94.734023
1.529995E-6	-92.589272
1.53004E-6	-90.003476
1.530085E-6	-96.163641
1.53013E-6	-86.546263
1.530175E-6	-80.122444
1.53022E-6	-75.082182
1.530265E-6	-73.448616
1.53031E-6	-73.375255
1.530355E-6	-73.105136
1.5304E-6	-72.988639
1.530445E-6	-73.033815
1.53049E-6	-73.174037
1.530535E-6	-73.449577
1.53058E-6	-75.084982
1.530625E-6	-79.694003
1.53067E-6	-84.816177
1.530715E-6	-90.175478
1.53076E-6	-90.935572
1.530805E-6	-96.294869
1.53085E-6	-86.083593
1.530895E-6	-88.90759
1.53094E-6	-81.880231
1.530985E-6	-75.409092
1.53103E-6	-73.49207
1.531075E-6	-73.017254
1.53112E-6	-73.00249
1.531165E-6	-72.939653
1.53121E-6	-72.951634
1.531255E-6	-72.9073
1.5313E-6	-73.051317
1.531345E-6	-74.356891
1.53139E-6	-77.517814
1.531435E-6	-81.470932
1.53148E-6	-87.862167
1.531525E-6	-105.16698
1.53157E-6	-87.366007
1.531615E-6	-92.181728
1.53166E-6	-91.724369
1.531705E-6	-83.443814
1.53175E-6	-78.198741
1.531795E-6	-74.271284
1.53184E-6	-73.223018
1.531885E-6	-72.89375
1.53193E-6	-72.974833
1.531975E-6	-72.863415
1.53202E-6	-72.879399
1.532065E-6	-72.975695
1.53211E-6	-73.713046
1.532155E-6	-75.805399
1.5322E-6	-80.218652
1.532245E-6	-84.842586
1.53229E-6	-86.736641
1.532335E-6	-90.406724
1.53238E-6	-92.215593
1.532425E-6	-120
1.53247E-6	-89.461536
1.532515E-6	-79.909743
1.53256E-6	-75.221555
1.532605E-6	-73.475603
1.53265E-6	-73.236723
1.532695E-6	-73.158731
1.53274E-6	-73.082115
1.532785E-6	-73.115802
1.53283E-6	-72.995559
1.532875E-6	-73.601153
1.53292E-6	-75.275361
1.532965E-6	-79.027427
1.53301E-6	-83.385659
1.533055E-6	-88.877302
1.5331E-6	-98.107905
1.533145E-6	-89.010104
1.53319E-6	-90.17774
1.533235E-6	-93.9794
1.53328E-6	-83.181259
1.533325E-6	-77.020208
1.53337E-6	-74.516106
1.533415E-6	-73.439018
1.53346E-6	-73.365818
1.533505E-6	-73.417977
1.53355E-6	-73.59618
1.533595E-6	-73.674415
1.53364E-6	-73.919021
1.533685E-6	-74.858509
1.53373E-6	-76.92932
1.533775E-6	-81.495989
1.53382E-6	-89.381707
1.533865E-6	-120
1.53391E-6	-120
1.533955E-6	-88.052082
1.534E-6	-87.221617
1.534045E-6	-86.823545
1.53409E-6	-81.402015
1.534135E-6	-75.583049
1.53418E-6	-74.545692
1.534225E-6	-74.327383
1.53427E-6	-74.452686
1.534315E-6	-74.281748
1.53436E-6	-74.22968
1.534405E-6	-74.248122
1.53445E-6	-74.873156
1.534495E-6	-76.38839
1.53454E-6	-79.633711
1.534585E-6	-83.870043
1.53463E-6	-98.213108
1.534675E-6	-120
1.53472E-6	-89.854795
1.534765E-6	-91.7993
1.53481E-6	-90.777937
1.534855E-6	-83.989183
1.5349E-6	-78.344589
1.534945E-6	-75.812017
1.53499E-6	-74.889192
1.535035E-6	-75.089186
1.53508E-6	-74.944431
1.535125E-6	-75.090588
1.53517E-6	-74.870489
1.535215E-6	-75.279753
1.53526E-6	-76.118988
1.535305E-6	-78.820662
1.53535E-6	-83.090954
1.535395E-6	-120
1.53544E-6	-89.633711
1.535485E-6	-94.862498
1.53553E-6	-86.759234
1.535575E-6	-92.329926
1.53562E-6	-85.048721
1.535665E-6	-80.791986
1.53571E-6	-76.808939
1.535755E-6	-76.320853
1.5358E-6	-75.575202
1.535845E-6	-75.600361
1.53589E-6	-75.798792
1.535935E-6	-75.540846
1.53598E-6	-75.667103
1.536025E-6	-76.26904
1.53607E-6	-78.138916
1.536115E-6	-81.466669
1.53616E-6	-89.270153
1.536205E-6	-88.863908
1.53625E-6	-89.538952
1.536295E-6	-97.2262
1.53634E-6	-89.492337
1.536385E-6	-99.037854
1.53643E-6	-85.797141
1.536475E-6	-79.570309
1.53652E-6	-76.991872
1.536565E-6	-76.081831
1.53661E-6	-76.212388
1.536655E-6	-76.352614
1.5367E-6	-76.0206
1.536745E-6	-76.057235
1.53679E-6	-76.201508
1.536835E-6	-77.977842
1.53688E-6	-79.321855
1.536925E-6	-84.765137
1.53697E-6	-87.649768
1.537015E-6	-86.432095
1.53706E-6	-120
1.537105E-6	-86.92718
1.53715E-6	-87.249191
1.537195E-6	-92.099261
1.53724E-6	-82.278984
1.537285E-6	-78.53872
1.53733E-6	-76.643415
1.537375E-6	-76.373291
1.53742E-6	-76.169031
1.537465E-6	-76.68168
1.53751E-6	-76.236056
1.537555E-6	-76.550186
1.5376E-6	-77.354183
1.537645E-6	-78.467951
1.53769E-6	-81.887602
1.537735E-6	-86.176227
1.53778E-6	-93.992449
1.537825E-6	-91.140737
1.53787E-6	-93.270713
1.537915E-6	-120
1.53796E-6	-93.581295
1.538005E-6	-86.639407
1.53805E-6	-80.246601
1.538095E-6	-77.055338
1.53814E-6	-77.160207
1.538185E-6	-76.806857
1.53823E-6	-76.554113
1.538275E-6	-76.806857
1.53832E-6	-76.043242
1.538365E-6	-76.5738
1.53841E-6	-77.654827
1.538455E-6	-79.617774
1.5385E-6	-84.418917
1.538545E-6	-88.431481
1.53859E-6	-90.236959
1.538635E-6	-89.854795
1.53868E-6	-87.31422
1.538725E-6	-92.580609
1.53877E-6	-89.969705
1.538815E-6	-82.662412
1.53886E-6	-78.900841
1.538905E-6	-76.755118
1.53895E-6	-76.430186
1.538995E-6	-76.169031
1.53904E-6	-76.375175
1.539085E-6	-76.34512
1.53913E-6	-76.34512
1.539175E-6	-77.026773
1.53922E-6	-78.735439
1.539265E-6	-81.781591
1.53931E-6	-84.503838
1.539355E-6	-91.347775
1.5394E-6	-91.750935
1.539445E-6	-91.63486
1.53949E-6	-87.108572
1.539535E-6	-90.333421
1.53958E-6	-84.918745
1.539625E-6	-80.90765
1.53967E-6	-77.081873
1.539715E-6	-76.613443
1.53976E-6	-76.287474
1.539805E-6	-76.422557
1.53985E-6	-76.687752
1.539895E-6	-76.569855
1.53994E-6	-76.358244
1.539985E-6	-77.432823
1.54003E-6	-79.689957
1.540075E-6	-83.202996
1.54012E-6	-87.833064
1.540165E-6	-89.484616
1.54021E-6	-120
1.540255E-6	-93.336693
1.5403E-6	-120
1.540345E-6	-96.0206
1.54039E-6	-82.295899
1.540435E-6	-78.664611
1.54048E-6	-76.593576
1.540525E-6	-76.174427
1.54057E-6	-75.812017
1.540615E-6	-76.131445
1.54066E-6	-76.409238
1.540705E-6	-76.322715
1.54075E-6	-76.35449
1.540795E-6	-78.17015
1.54084E-6	-81.120453
1.540885E-6	-85.909126
1.54093E-6	-86.377061
1.540975E-6	-93.223018
1.54102E-6	-97.253804
1.541065E-6	-92.885302
1.54111E-6	-86.761294
1.541155E-6	-86.855008
1.5412E-6	-80.490999
1.541245E-6	-77.092978
1.54129E-6	-76.104795
1.541335E-6	-76.178028
1.54138E-6	-76.103025
1.541425E-6	-75.949953
1.54147E-6	-75.68154
1.541515E-6	-76.036263
1.54156E-6	-76.378947
1.541605E-6	-78.588639
1.54165E-6	-81.084625
1.541695E-6	-87.754669
1.54174E-6	-86.272721
1.541785E-6	-94.734023
1.54183E-6	-90.537934
1.541875E-6	-89.50782
1.54192E-6	-87.772835
1.541965E-6	-84.334447
1.54201E-6	-79.197344
1.542055E-6	-76.663512
1.5421E-6	-75.76918
1.542145E-6	-75.362563
1.54219E-6	-75.657505
1.542235E-6	-75.471407
1.54228E-6	-75.344684
1.542325E-6	-76.0206
1.54237E-6	-76.673596
1.542415E-6	-79.027427
1.54246E-6	-82.883615
1.542505E-6	-87.94525
1.54255E-6	-90.487111
1.542595E-6	-92.116902
1.54264E-6	-120
1.542685E-6	-120
1.54273E-6	-89.35542
1.542775E-6	-81.795358
1.54282E-6	-77.447275
1.542865E-6	-76.015392
1.54291E-6	-75.562678
1.542955E-6	-75.670307
1.543E-6	-75.319482
1.543045E-6	-75.505216
1.54309E-6	-75.247648
1.543135E-6	-76.197888
1.54318E-6	-77.572102
1.543225E-6	-80.315638
1.54327E-6	-85.545515
1.543315E-6	-88.955129
1.54336E-6	-98.526329
1.543405E-6	-89.058784
1.54345E-6	-104.513649
1.543495E-6	-92.139588
1.54354E-6	-85.57677
1.543585E-6	-79.558524
1.54363E-6	-76.17983
1.543675E-6	-75.36555
1.54372E-6	-75.269512
1.543765E-6	-75.509847
1.54381E-6	-75.878756
1.543855E-6	-75.176982
1.5439E-6	-75.270973
1.543945E-6	-75.887171
1.54399E-6	-78.754958
1.544035E-6	-82.389747
1.54408E-6	-86.029295
1.544125E-6	-95.406075
1.54417E-6	-92.739251
1.544215E-6	-89.742846
1.54426E-6	-94.947143
1.544305E-6	-89.714287
1.54435E-6	-83.554629
1.544395E-6	-78.032713
1.54444E-6	-75.477534
1.544485E-6	-75.22734
1.54453E-6	-75.600361
1.544575E-6	-75.041782
1.54462E-6	-75.257837
1.544665E-6	-75.460704
1.54471E-6	-75.217222
1.544755E-6	-76.38461
1.5448E-6	-79.288547
1.544845E-6	-82.392007
1.54489E-6	-91.226863
1.544935E-6	-92.136035
1.54498E-6	-88.616973
1.545025E-6	-84.170281
1.54507E-6	-76.018863
1.545115E-6	-63.293831
1.54516E-6	-49.37418
1.545205E-6	-42.955921
1.54525E-6	-40.750491
1.545295E-6	-40.246601
1.54534E-6	-40.175026
1.545385E-6	-40.188159
1.54543E-6	-40.185892
1.545475E-6	-40.56456
1.54552E-6	-42.581396
1.545565E-6	-47.759852
1.54561E-6	-56.972363
1.545655E-6	-65.614577
1.5457E-6	-72.855026
1.545745E-6	-79.058784
1.54579E-6	-82.356744
1.545835E-6	-86.712128
1.54588E-6	-85.855281
1.545925E-6	-88.043771
1.54597E-6	-79.446217
1.546015E-6	-76.550186
1.54606E-6	-75.130031
1.546105E-6	-75.312097
1.54615E-6	-74.958011
1.546195E-6	-75.595632
1.54624E-6	-75.055671
1.546285E-6	-75.275361
1.54633E-6	-75.483671
1.546375E-6	-78.285661
1.54642E-6	-80.929113
1.546465E-6	-85.741399
1.54651E-6	-87.481185
1.546555E-6	-90
1.5466E-6	-82.849163
1.546645E-6	-80.277509
1.54669E-6	-70.988687
1.546735E-6	-54.284076
1.54678E-6	-44.732731
1.546825E-6	-41.399616
1.54687E-6	-40.355518
1.546915E-6	-40.154277
1.54696E-6	-40.138555
1.547005E-6	-40.124231
1.54705E-6	-40.259491
1.547095E-6	-41.415831
1.54714E-6	-44.886515
1.547185E-6	-52.075383
1.54723E-6	-61.002889
1.547275E-6	-69.661743
1.54732E-6	-76.671577
1.547365E-6	-81.036392
1.54741E-6	-84.940365
1.547455E-6	-87.710866
1.5475E-6	-86.27088
1.547545E-6	-81.616547
1.54759E-6	-77.121983
1.547635E-6	-75.721894
1.54768E-6	-74.910665
1.547725E-6	-75.101821
1.54777E-6	-74.800408
1.547815E-6	-75.079384
1.54786E-6	-75.199931
1.547905E-6	-75.76918
1.54795E-6	-77.46662
1.547995E-6	-79.20457
1.54804E-6	-82.977418
1.548085E-6	-89.093893
1.54813E-6	-85.477534
1.548175E-6	-86.185239
1.54822E-6	-83.372422
1.548265E-6	-75.147046
1.54831E-6	-61.376897
1.548355E-6	-48.44664
1.5484E-6	-42.475674
1.548445E-6	-40.503661
1.54849E-6	-40.112627
1.548535E-6	-40.03182
1.54858E-6	-40.017843
1.548625E-6	-40.076674
1.54867E-6	-40.495865
1.548715E-6	-42.666422
1.54876E-6	-48.029953
1.548805E-6	-57.8199
1.54885E-6	-66.339508
1.548895E-6	-73.233978
1.54894E-6	-79.476909
1.548985E-6	-82.504183
1.54903E-6	-85.958508
1.549075E-6	-87.382615
1.54912E-6	-84.124013
1.549165E-6	-79.75925
1.54921E-6	-76.181632
1.549255E-6	-75.014138
1.5493E-6	-75.115903
1.549345E-6	-74.87983
1.54939E-6	-75.268051
1.549435E-6	-75.318004
1.54948E-6	-75.000381
1.549525E-6	-75.943122
1.54957E-6	-78.193008
1.549615E-6	-81.144126
1.54966E-6	-85.407583
1.549705E-6	-86.92718
1.54975E-6	-87.176045
1.549795E-6	-90.494404
1.54984E-6	-80.63788
1.549885E-6	-71.555228
1.54993E-6	-54.907975
1.549975E-6	-44.925489
1.55002E-6	-41.34896
1.550065E-6	-40.197693
1.55011E-6	-40.027447
1.550155E-6	-39.97402
1.5502E-6	-39.952488
1.550245E-6	-40.032257
1.55029E-6	-40.837567
1.550335E-6	-43.920091
1.55038E-6	-50.156527
1.550425E-6	-61.643728
1.55047E-6	-69.055289
1.550515E-6	-75.800443
1.55056E-6	-80.296996
1.550605E-6	-84.218194
1.55065E-6	-86.867657
1.550695E-6	-89.850597
1.55074E-6	-82.21704
1.550785E-6	-77.151183
1.55083E-6	-75.547072
1.550875E-6	-75.057062
1.55092E-6	-74.791236
1.550965E-6	-74.979828
1.55101E-6	-74.847887
1.551055E-6	-74.770344
1.5511E-6	-75.188441
1.551145E-6	-76.064248
1.55119E-6	-78.996295
1.551235E-6	-82.435921
1.55128E-6	-87.647241
1.551325E-6	-86.17983
1.55137E-6	-94.000078
1.551415E-6	-120
1.55146E-6	-87.425614
1.551505E-6	-85.4546
1.55155E-6	-81.337718
1.551595E-6	-76.449318
1.55164E-6	-75.292956
1.551685E-6	-74.845236
1.55173E-6	-74.803032
1.551775E-6	-74.869156
1.55182E-6	-74.53334
1.551865E-6	-74.947143
1.55191E-6	-75.131446
1.551955E-6	-76.067759
1.552E-6	-78.8706
1.552045E-6	-83.494011
1.55209E-6	-87.535014
1.552135E-6	-95.867002
1.55218E-6	-89.3968
1.552225E-6	-120
1.55227E-6	-87.825161
1.552315E-6	-85.909126
1.55236E-6	-80.617806
1.552405E-6	-75.972229
1.55245E-6	-75.350636
1.552495E-6	-74.681381
1.55254E-6	-74.871822
1.552585E-6	-74.756039
1.55263E-6	-74.577972
1.552675E-6	-74.983931
1.55272E-6	-74.897232
1.552765E-6	-76.281935
1.55281E-6	-79.193735
1.552855E-6	-84.213608
1.5529E-6	-88.814046
1.552945E-6	-88.422411
1.55299E-6	-120
1.553035E-6	-87.481185
1.55308E-6	-82.193227
1.553125E-6	-83.995717
1.55317E-6	-79.531148
1.553215E-6	-76.011923
1.55326E-6	-74.770344
1.553305E-6	-74.511194
1.55335E-6	-74.521023
1.553395E-6	-74.683934
1.55344E-6	-74.544455
1.553485E-6	-74.636941
1.55353E-6	-74.981195
1.553575E-6	-76.968039
1.55362E-6	-79.804683
1.553665E-6	-85.383514
1.55371E-6	-90.435914
1.553755E-6	-90.13497
1.5538E-6	-120
1.553845E-6	-89.808837
1.55389E-6	-91.405615
1.553935E-6	-83.804893
1.55398E-6	-79.233596
1.554025E-6	-75.718652
1.55407E-6	-74.726279
1.554115E-6	-74.400934
1.55416E-6	-74.352156
1.554205E-6	-74.310946
1.55425E-6	-74.739193
1.554295E-6	-74.528409
1.55434E-6	-75.413622
1.554385E-6	-77.144427
1.55443E-6	-80.495378
1.554475E-6	-86.27088
1.55452E-6	-89.842212
1.554565E-6	-120
1.55461E-6	-88.480176
1.554655E-6	-94.337983
1.5547E-6	-88.880657
1.554745E-6	-84.30509
1.55479E-6	-78.332739
1.554835E-6	-75.457651
1.55488E-6	-74.752146
1.554925E-6	-74.518564
1.55497E-6	-73.994627
1.555015E-6	-74.452686
1.55506E-6	-74.6572
1.555105E-6	-74.639468
1.55515E-6	-74.847887
1.555195E-6	-77.221617
1.55524E-6	-80.321246
1.555285E-6	-85.021033
1.55533E-6	-88.495506
1.555375E-6	-86.5738
1.55542E-6	-91.546539
1.555465E-6	-89.37418
1.55551E-6	-120
1.555555E-6	-83.328273
1.5556E-6	-78.23041
1.555645E-6	-75.539291
1.55569E-6	-74.945787
1.555735E-6	-74.518564
1.55578E-6	-74.341522
1.555825E-6	-74.379452
1.55587E-6	-74.624327
1.555915E-6	-74.433357
1.55596E-6	-75.015516
1.556005E-6	-76.838199
1.55605E-6	-80.584886
1.556095E-6	-85.347659
1.55614E-6	-91.328862
1.556185E-6	-92.060002
1.55623E-6	-91.511953
1.556275E-6	-91.612768
1.55632E-6	-85.826944
1.556365E-6	-83.434227
1.55641E-6	-77.389752
1.556455E-6	-75.197055
1.5565E-6	-74.278257
1.556545E-6	-74.048346
1.55659E-6	-74.365189
1.556635E-6	-74.15895
1.55668E-6	-74.144265
1.556725E-6	-74.420119
1.55677E-6	-75.282683
1.556815E-6	-77.503126
1.55686E-6	-80.480314
1.556905E-6	-86.237881
1.55695E-6	-86.627405
1.556995E-6	-120
1.55704E-6	-97.726276
1.557085E-6	-91.868862
1.55713E-6	-86.06074
1.557175E-6	-82.903061
1.55722E-6	-77.050931
1.557265E-6	-75.09901
1.55731E-6	-74.309774
1.557355E-6	-74.309774
1.5574E-6	-74.342702
1.557445E-6	-74.206738
1.55749E-6	-74.704413
1.557535E-6	-74.649592
1.55758E-6	-75.115903
1.557625E-6	-77.428016
1.55767E-6	-81.429088
1.557715E-6	-85.929492
1.55776E-6	-86.873996
1.557805E-6	-89.888526
1.55785E-6	-96.420652
1.557895E-6	-88.680607
1.55794E-6	-87.597004
1.557985E-6	-83.417977
1.55803E-6	-77.418418
1.558075E-6	-75.000381
1.55812E-6	-74.55932
1.558165E-6	-74.349791
1.55821E-6	-74.355707
1.558255E-6	-74.372315
1.5583E-6	-74.375882
1.558345E-6	-74.700566
1.55839E-6	-75.198493
1.558435E-6	-77.552282
1.55848E-6	-80.80765
1.558525E-6	-85.421181
1.55857E-6	-88.224635
1.558615E-6	-90.192242
1.55866E-6	-86.064248
1.558705E-6	-87.840982
1.55875E-6	-89.037854
1.558795E-6	-83.119363
1.55884E-6	-77.249191
1.558885E-6	-75.303252
1.55893E-6	-74.805658
1.558975E-6	-74.449056
1.55902E-6	-74.470885
1.559065E-6	-74.341522
1.55911E-6	-74.315636
1.559155E-6	-74.66355
1.5592E-6	-75.37602
1.559245E-6	-77.891466
1.55929E-6	-80.999061
1.559335E-6	-85.059846
1.55938E-6	-92.143143
1.559425E-6	-92.197547
1.55947E-6	-87.297871
1.559515E-6	-95.401554
1.55956E-6	-89.496202
1.559605E-6	-82.501092
1.55965E-6	-78.563608
1.559695E-6	-75.848596
1.55974E-6	-74.745664
1.559785E-6	-74.652126
1.55983E-6	-74.643262
1.559875E-6	-74.90663
1.55992E-6	-74.7379
1.559965E-6	-74.87983
1.56001E-6	-75.625666
1.560055E-6	-77.632109
1.5601E-6	-81.370342
1.560145E-6	-88.407337
1.56019E-6	-90.275195
1.560235E-6	-120
1.56028E-6	-91.023729
1.560325E-6	-92.410881
1.56037E-6	-89.150664
1.560415E-6	-84.607984
1.56046E-6	-78.703101
1.560505E-6	-75.536182
1.56055E-6	-75.238933
1.560595E-6	-74.917397
1.56064E-6	-74.989407
1.560685E-6	-75.43027
1.56073E-6	-74.993519
1.560775E-6	-75.539291
1.56082E-6	-75.319482
1.560865E-6	-78.227522
1.56091E-6	-80.990324
1.560955E-6	-86.032777
1.561E-6	-88.241984
1.561045E-6	-89.538952
1.56109E-6	-88.107905
1.561135E-6	-92.261404
1.56118E-6	-91.447232
1.561225E-6	-84.05718
1.56127E-6	-79.093893
1.561315E-6	-76.161846
1.56136E-6	-75.340226
1.561405E-6	-75.632015
1.56145E-6	-75.307673
1.561495E-6	-75.503673
1.56154E-6	-76.74074
1.561585E-6	-75.684754
1.56163E-6	-76.23423
1.561675E-6	-79.193735
1.56172E-6	-81.403214
1.561765E-6	-85.564241
1.56181E-6	-89.961088
1.561855E-6	-99.931063
1.5619E-6	-93.474636
1.561945E-6	-120
1.56199E-6	-89.006647
1.562035E-6	-83.144374
1.56208E-6	-79.775716
1.562125E-6	-76.621416
1.56217E-6	-75.492891
1.562215E-6	-75.96022
1.56226E-6	-75.614577
1.562305E-6	-75.973948
1.56235E-6	-76.212388
1.562395E-6	-76.378947
1.56244E-6	-76.432095
1.562485E-6	-78.262312
1.56253E-6	-82.143855
1.562575E-6	-86.120765
1.56262E-6	-87.086311
1.562665E-6	-92.34555
1.56271E-6	-91.508878
1.562755E-6	-90.700194
1.5628E-6	-86.403542
1.562845E-6	-84.517335
1.56289E-6	-80.438796
1.562935E-6	-77.304871
1.56298E-6	-76.767479
1.563025E-6	-76.143937
1.56307E-6	-76.011923
1.563115E-6	-76.581699
1.56316E-6	-76.407338
1.563205E-6	-76.33017
1.56325E-6	-76.852903
1.563295E-6	-78.655041
1.56334E-6	-81.41102
1.563385E-6	-84.025242
1.56343E-6	-86.641411
1.563475E-6	-88.291518
1.56352E-6	-120
1.563565E-6	-89.062282
1.56361E-6	-90.277972
1.563655E-6	-87.084092
1.5637E-6	-82.032869
1.563745E-6	-78.810742
1.56379E-6	-77.108572
1.563835E-6	-76.905828
1.56388E-6	-76.974526
1.563925E-6	-77.050931
1.56397E-6	-77.20105
1.564015E-6	-77.171514
1.56406E-6	-77.077439
1.564105E-6	-78.890738
1.56415E-6	-81.249966
1.564195E-6	-88.748442
1.56424E-6	-90.288634
1.564285E-6	-88.771291
1.56433E-6	-90.898026
1.564375E-6	-94.321505
1.56442E-6	-92.14101
1.564465E-6	-88.601209
1.56451E-6	-82.718898
1.564555E-6	-79.625735
1.5646E-6	-77.899492
1.564645E-6	-77.710866
1.56469E-6	-77.425614
1.564735E-6	-78.437538
1.56478E-6	-77.604503
1.564825E-6	-77.219327
1.56487E-6	-77.872798
1.564915E-6	-79.649707
1.56496E-6	-81.477641
1.565005E-6	-84.859838
1.56505E-6	-92.168829
1.565095E-6	-93.21846
1.56514E-6	-120
1.565185E-6	-91.012748
1.56523E-6	-120
1.565275E-6	-98.041003
1.56532E-6	-83.901922
1.565365E-6	-85.30178
1.56541E-6	-78.847224
1.565455E-6	-78.341624
1.5655E-6	-78.480176
1.565545E-6	-78.207355
1.56559E-6	-78.244882
1.565635E-6	-78.043771
1.56568E-6	-78.392314
1.565725E-6	-79.531148
1.56577E-6	-81.737956
1.565815E-6	-87.442452
1.56586E-6	-120
1.565905E-6	-92.022479
1.56595E-6	-90.442642
1.565995E-6	-92.312879
1.56604E-6	-120
1.566085E-6	-104.281748
1.56613E-6	-90.98106
1.566175E-6	-81.665979
1.56622E-6	-79.129288
1.566265E-6	-78.90759
1.56631E-6	-78.548036
1.566355E-6	-78.90759
1.5664E-6	-78.884015
1.566445E-6	-78.616973
1.56649E-6	-79.003194
1.566535E-6	-79.742846
1.56658E-6	-81.356076
1.566625E-6	-89.310724
1.56667E-6	-97.044329
1.566715E-6	-88.616973
1.56676E-6	-120
1.566805E-6	-85.147046
1.56685E-6	-93.272558
1.566895E-6	-92.192508
1.56694E-6	-91.89902
1.566985E-6	-82.589272
1.56703E-6	-81.0122
1.567075E-6	-80.144837
1.56712E-6	-79.991323
1.567165E-6	-79.637705
1.56721E-6	-79.229957
1.567255E-6	-79.597934
1.5673E-6	-79.897
1.567345E-6	-80.407678
1.56739E-6	-81.927356
1.567435E-6	-84.890531
1.56748E-6	-86.736641
1.567525E-6	-98.16161
1.56757E-6	-87.582046
1.567615E-6	-94.236586
1.56766E-6	-93.745846
1.567705E-6	-92.598743
1.56775E-6	-87.512913
1.567795E-6	-84.334447
1.56784E-6	-81.061273
1.567885E-6	-80.662597
1.56793E-6	-79.613798
1.567975E-6	-80.193604
1.56802E-6	-80.244763
1.568065E-6	-79.41574
1.56811E-6	-80.664621
1.568155E-6	-80.86557
1.5682E-6	-81.845551
1.568245E-6	-85.608253
1.56829E-6	-89.136402
1.568335E-6	-91.723723
1.56838E-6	-93.901922
1.568425E-6	-120
1.56847E-6	-87.295541
1.568515E-6	-89.605859
1.56856E-6	-86.987529
1.568605E-6	-86.589614
1.56865E-6	-82.714839
1.568695E-6	-80.712458
1.56874E-6	-80.51587
1.568785E-6	-81.843559
1.56883E-6	-81.460586
1.568875E-6	-81.035289
1.56892E-6	-81.63486
1.568965E-6	-81.081839
1.56901E-6	-82.592427
1.569055E-6	-85.812017
1.5691E-6	-85.670307
1.569145E-6	-91.820382
1.56919E-6	-89.535048
1.569235E-6	-91.210763
1.56928E-6	-92.813323
1.569325E-6	-86.031036
1.56937E-6	-97.677665
1.569415E-6	-87.950665
1.56946E-6	-84.70313
1.569505E-6	-81.393626
1.56955E-6	-81.032534
1.569595E-6	-81.409819
1.56964E-6	-81.816421
1.569685E-6	-81.750285
1.56973E-6	-82.06489
1.569775E-6	-82.247537
1.56982E-6	-81.865525
1.569865E-6	-84.020855
1.56991E-6	-88.810742
1.569955E-6	-92.51812
1.57E-6	-97.351822
