Wavelength (nm)	Power (dBm)
1.525E-6	-48.204482
1.525045E-6	-48.096683
1.52509E-6	-47.994231
1.525135E-6	-47.896815
1.52518E-6	-47.806775
1.525225E-6	-47.700623
1.52527E-6	-47.604503
1.525315E-6	-47.503126
1.52536E-6	-47.418418
1.525405E-6	-47.32359
1.52545E-6	-47.21475
1.525495E-6	-47.101882
1.52554E-6	-46.998395
1.525585E-6	-46.88458
1.52563E-6	-46.806857
1.525675E-6	-46.716204
1.52572E-6	-46.613443
1.525765E-6	-46.528652
1.52581E-6	-46.447401
1.525855E-6	-46.394066
1.5259E-6	-46.332036
1.525945E-6	-46.274562
1.52599E-6	-46.219657
1.526035E-6	-46.124322
1.52608E-6	-46.069515
1.526125E-6	-46.0206
1.52617E-6	-45.926091
1.526215E-6	-45.84359
1.52626E-6	-45.749551
1.526305E-6	-45.651119
1.52635E-6	-45.537736
1.526395E-6	-45.483671
1.52644E-6	-45.410601
1.526485E-6	-45.326879
1.52653E-6	-45.259295
1.526575E-6	-45.195619
1.52662E-6	-45.15985
1.526665E-6	-45.130031
1.52671E-6	-45.134278
1.526755E-6	-45.057062
1.5268E-6	-45.062632
1.526845E-6	-44.983931
1.52689E-6	-44.951215
1.526935E-6	-44.877159
1.52698E-6	-44.846561
1.527025E-6	-44.757337
1.52707E-6	-44.690323
1.527115E-6	-44.570502
1.52716E-6	-44.490382
1.527205E-6	-44.439388
1.52725E-6	-44.409317
1.527295E-6	-44.366376
1.52734E-6	-44.306261
1.527385E-6	-44.295738
1.52743E-6	-44.320331
1.527475E-6	-44.335625
1.52752E-6	-44.367563
1.527565E-6	-44.343883
1.52761E-6	-44.341522
1.527655E-6	-44.278257
1.5277E-6	-44.240044
1.527745E-6	-44.210172
1.52779E-6	-44.153296
1.527835E-6	-44.099388
1.52788E-6	-43.989183
1.527925E-6	-43.910463
1.52797E-6	-43.898724
1.528015E-6	-43.859469
1.52806E-6	-43.820566
1.528105E-6	-43.849974
1.52815E-6	-43.817427
1.528195E-6	-43.828948
1.52824E-6	-43.898724
1.528285E-6	-43.930815
1.52833E-6	-43.989183
1.528375E-6	-43.987007
1.52842E-6	-43.952341
1.528465E-6	-43.935111
1.52851E-6	-43.945872
1.528555E-6	-43.927595
1.5286E-6	-43.859469
1.528645E-6	-43.776823
1.52869E-6	-43.679478
1.528735E-6	-43.636124
1.52878E-6	-43.620102
1.528825E-6	-43.645163
1.52887E-6	-43.622102
1.528915E-6	-43.647174
1.52896E-6	-43.672391
1.529005E-6	-43.732491
1.52905E-6	-43.844708
1.529095E-6	-43.87534
1.52914E-6	-43.890206
1.529185E-6	-43.883829
1.52923E-6	-43.87428
1.529275E-6	-43.883829
1.52932E-6	-43.895528
1.529365E-6	-43.827899
1.52941E-6	-43.771645
1.529455E-6	-43.661277
1.5295E-6	-43.629107
1.529545E-6	-43.613111
1.52959E-6	-43.625103
1.529635E-6	-43.637127
1.52968E-6	-43.634118
1.529725E-6	-43.609121
1.52977E-6	-43.709984
1.529815E-6	-43.800723
1.52986E-6	-43.898724
1.529905E-6	-43.922234
1.52995E-6	-43.926522
1.529995E-6	-43.898724
1.53004E-6	-43.928668
1.530085E-6	-43.940488
1.53013E-6	-43.931889
1.530175E-6	-43.827899
1.53022E-6	-43.73044
1.530265E-6	-43.67138
1.53031E-6	-43.695721
1.530355E-6	-43.686577
1.5304E-6	-43.697756
1.530445E-6	-43.704885
1.53049E-6	-43.691655
1.530535E-6	-43.737623
1.53058E-6	-43.852082
1.530625E-6	-43.972891
1.53067E-6	-43.987007
1.530715E-6	-43.992449
1.53076E-6	-43.995717
1.530805E-6	-44.014283
1.53085E-6	-44.008814
1.530895E-6	-44.040631
1.53094E-6	-43.965308
1.530985E-6	-43.861582
1.53103E-6	-43.80385
1.531075E-6	-43.771645
1.53112E-6	-43.794476
1.531165E-6	-43.81429
1.53121E-6	-43.804893
1.531255E-6	-43.798639
1.5313E-6	-43.851028
1.531345E-6	-43.939413
1.53139E-6	-44.068247
1.531435E-6	-44.104972
1.53148E-6	-44.14201
1.531525E-6	-44.128505
1.53157E-6	-44.15895
1.531615E-6	-44.168012
1.53166E-6	-44.202164
1.531705E-6	-44.146521
1.53175E-6	-44.06271
1.531795E-6	-43.975059
1.53184E-6	-43.960982
1.531885E-6	-43.95342
1.53193E-6	-43.980486
1.531975E-6	-43.975059
1.53202E-6	-43.988095
1.532065E-6	-44.048346
1.53211E-6	-44.10609
1.532155E-6	-44.199879
1.5322E-6	-44.29107
1.532245E-6	-44.316809
1.53229E-6	-44.339162
1.532335E-6	-44.379452
1.53238E-6	-44.392567
1.532425E-6	-44.403327
1.53247E-6	-44.394956
1.532515E-6	-44.316809
1.53256E-6	-44.238891
1.532605E-6	-44.188471
1.53265E-6	-44.19075
1.532695E-6	-44.209027
1.53274E-6	-44.20445
1.532785E-6	-44.2159
1.53283E-6	-44.275931
1.532875E-6	-44.30509
1.53292E-6	-44.444219
1.532965E-6	-44.545692
1.53301E-6	-44.591702
1.533055E-6	-44.63063
1.5331E-6	-44.641997
1.533145E-6	-44.667365
1.53319E-6	-44.672456
1.533235E-6	-44.685211
1.53328E-6	-44.66355
1.533325E-6	-44.584208
1.53337E-6	-44.514877
1.533415E-6	-44.500164
1.53346E-6	-44.507514
1.533505E-6	-44.530874
1.53355E-6	-44.550642
1.533595E-6	-44.599209
1.53364E-6	-44.628108
1.533685E-6	-44.70313
1.53373E-6	-44.838614
1.533775E-6	-44.910665
1.53382E-6	-44.949858
1.533865E-6	-44.971634
1.53391E-6	-44.994891
1.533955E-6	-45.011383
1.534E-6	-45.043169
1.534045E-6	-45.033471
1.53409E-6	-44.996263
1.534135E-6	-44.907975
1.53418E-6	-44.877159
1.534225E-6	-44.890531
1.53427E-6	-44.886515
1.534315E-6	-44.92414
1.53436E-6	-44.960732
1.534405E-6	-44.985299
1.53445E-6	-45.0515
1.534495E-6	-45.120137
1.53454E-6	-45.240384
1.534585E-6	-45.32836
1.53463E-6	-45.36107
1.534675E-6	-45.359578
1.53472E-6	-45.400047
1.534765E-6	-45.392525
1.53481E-6	-45.409092
1.534855E-6	-45.395532
1.5349E-6	-45.347659
1.534945E-6	-45.252012
1.53499E-6	-45.237482
1.535035E-6	-45.270973
1.53508E-6	-45.30178
1.535125E-6	-45.337257
1.53517E-6	-45.352125
1.535215E-6	-45.395532
1.53526E-6	-45.471407
1.535305E-6	-45.573635
1.53535E-6	-45.657505
1.535395E-6	-45.717032
1.53544E-6	-45.718652
1.535485E-6	-45.738142
1.53553E-6	-45.746288
1.535575E-6	-45.764265
1.53562E-6	-45.765903
1.535665E-6	-45.70894
1.53571E-6	-45.638374
1.535755E-6	-45.597208
1.5358E-6	-45.594057
1.535845E-6	-45.601938
1.53589E-6	-45.635193
1.535935E-6	-45.668705
1.53598E-6	-45.679933
1.536025E-6	-45.728386
1.53607E-6	-45.833595
1.536115E-6	-45.914209
1.53616E-6	-46.001533
1.536205E-6	-46.006725
1.53625E-6	-46.010189
1.536295E-6	-46.011923
1.53634E-6	-46.001533
1.536385E-6	-46.057235
1.53643E-6	-46.013657
1.536475E-6	-45.924392
1.53652E-6	-45.867002
1.536565E-6	-45.830268
1.53661E-6	-45.84359
1.536655E-6	-45.868679
1.5367E-6	-45.883803
1.536745E-6	-45.885487
1.53679E-6	-45.90405
1.536835E-6	-46.008457
1.53688E-6	-46.094181
1.536925E-6	-46.176227
1.53697E-6	-46.181632
1.537015E-6	-46.183435
1.53706E-6	-46.174427
1.537105E-6	-46.199698
1.53715E-6	-46.223296
1.537195E-6	-46.197888
1.53724E-6	-46.129663
1.537285E-6	-46.025815
1.53733E-6	-45.99462
1.537375E-6	-45.972229
1.53742E-6	-45.998075
1.537465E-6	-45.980827
1.53751E-6	-46.001533
1.537555E-6	-46.003263
1.5376E-6	-46.03452
1.537645E-6	-46.152883
1.53769E-6	-46.219657
1.537735E-6	-46.278247
1.53778E-6	-46.287474
1.537825E-6	-46.274562
1.53787E-6	-46.283781
1.537915E-6	-46.293019
1.53796E-6	-46.267201
1.538005E-6	-46.232406
1.53805E-6	-46.122543
1.538095E-6	-46.06074
1.53814E-6	-46.048484
1.538185E-6	-46.036263
1.53823E-6	-46.044989
1.538275E-6	-46.046736
1.53832E-6	-46.038007
1.538365E-6	-46.057235
1.53841E-6	-46.154674
1.538455E-6	-46.236056
1.5385E-6	-46.293019
1.538545E-6	-46.29672
1.53859E-6	-46.285627
1.538635E-6	-46.302277
1.53868E-6	-46.305986
1.538725E-6	-46.328305
1.53877E-6	-46.29672
1.538815E-6	-46.19427
1.53886E-6	-46.108339
1.538905E-6	-46.064248
1.53895E-6	-46.048484
1.538995E-6	-46.039751
1.53904E-6	-46.044989
1.539085E-6	-46.044989
1.53913E-6	-46.043242
1.539175E-6	-46.085356
1.53922E-6	-46.174427
1.539265E-6	-46.26904
1.53931E-6	-46.280091
1.539355E-6	-46.300424
1.5394E-6	-46.29672
1.539445E-6	-46.307841
1.53949E-6	-46.328305
1.539535E-6	-46.287474
1.53958E-6	-46.237881
1.539625E-6	-46.126102
1.53967E-6	-46.07303
1.539715E-6	-46.039751
1.53976E-6	-46.022337
1.539805E-6	-46.015392
1.53985E-6	-46.010189
1.539895E-6	-46.001533
1.53994E-6	-46.010189
1.539985E-6	-46.080069
1.54003E-6	-46.192462
1.540075E-6	-46.243364
1.54012E-6	-46.263525
1.540165E-6	-46.263525
1.54021E-6	-46.280091
1.540255E-6	-46.27088
1.5403E-6	-46.27088
1.540345E-6	-46.221476
1.54039E-6	-46.149302
1.540435E-6	-46.06074
1.54048E-6	-45.996347
1.540525E-6	-45.987718
1.54057E-6	-45.967079
1.540615E-6	-45.967079
1.54066E-6	-45.956795
1.540705E-6	-45.949953
1.54075E-6	-45.989443
1.540795E-6	-46.094181
1.54084E-6	-46.17983
1.540885E-6	-46.210573
1.54093E-6	-46.212388
1.540975E-6	-46.237881
1.54102E-6	-46.232406
1.541065E-6	-46.221476
1.54111E-6	-46.216021
1.541155E-6	-46.145725
1.5412E-6	-46.064248
1.541245E-6	-45.951663
1.54129E-6	-45.912514
1.541335E-6	-45.89729
1.54138E-6	-45.902359
1.541425E-6	-45.9176
1.54147E-6	-45.883803
1.541515E-6	-45.905741
1.54156E-6	-45.948245
1.541605E-6	-46.06074
1.54165E-6	-46.149302
1.541695E-6	-46.190655
1.54174E-6	-46.176227
1.541785E-6	-46.187044
1.54183E-6	-46.161846
1.541875E-6	-46.169031
1.54192E-6	-46.129663
1.541965E-6	-46.085356
1.54201E-6	-45.979106
1.542055E-6	-45.89729
1.5421E-6	-45.86365
1.542145E-6	-45.846927
1.54219E-6	-45.853609
1.542235E-6	-45.855281
1.54228E-6	-45.865326
1.542325E-6	-45.861975
1.54237E-6	-45.958508
1.542415E-6	-46.051982
1.54246E-6	-46.115435
1.542505E-6	-46.140364
1.54255E-6	-46.158259
1.542595E-6	-46.136794
1.54264E-6	-46.133227
1.542685E-6	-46.127882
1.54273E-6	-46.095948
1.542775E-6	-45.99462
1.54282E-6	-45.875395
1.542865E-6	-45.820304
1.54291E-6	-45.823623
1.542955E-6	-45.816987
1.543E-6	-45.831931
1.543045E-6	-45.826944
1.54309E-6	-45.812017
1.543135E-6	-45.858626
1.54318E-6	-45.980827
1.543225E-6	-46.085356
1.54327E-6	-46.143937
1.543315E-6	-46.143937
1.54336E-6	-46.136794
1.543405E-6	-46.111886
1.54345E-6	-46.136794
1.543495E-6	-46.147513
1.54354E-6	-46.090649
1.543585E-6	-45.989443
1.54363E-6	-45.848596
1.543675E-6	-45.825283
1.54372E-6	-45.828606
1.543765E-6	-45.835259
1.54381E-6	-45.835259
1.543855E-6	-45.840256
1.5439E-6	-45.850267
1.543945E-6	-45.927791
1.54399E-6	-46.046736
1.544035E-6	-46.154674
1.54408E-6	-46.160052
1.544125E-6	-46.196078
1.54417E-6	-46.178028
1.544215E-6	-46.167233
1.54426E-6	-46.17983
1.544305E-6	-46.17983
1.54435E-6	-46.085356
1.544395E-6	-45.944829
1.54444E-6	-45.89729
1.544485E-6	-45.867002
1.54453E-6	-45.870357
1.544575E-6	-45.875395
1.54462E-6	-45.887171
1.544665E-6	-45.875395
1.54471E-6	-45.900669
1.544755E-6	-45.992894
1.5448E-6	-46.14215
1.544845E-6	-46.196078
1.54489E-6	-46.216021
1.544935E-6	-46.217839
1.54498E-6	-46.20332
1.545025E-6	-46.145725
1.54507E-6	-45.831931
1.545115E-6	-41.230897
1.54516E-6	-31.025379
1.545205E-6	-25.110265
1.54525E-6	-22.841637
1.545295E-6	-22.28486
1.54534E-6	-22.209088
1.545385E-6	-22.219211
1.54543E-6	-22.171692
1.545475E-6	-22.556288
1.54552E-6	-24.446637
1.545565E-6	-29.125735
1.54561E-6	-38.06319
1.545655E-6	-44.317983
1.5457E-6	-45.877075
1.545745E-6	-46.174427
1.54579E-6	-46.239708
1.545835E-6	-46.272721
1.54588E-6	-46.27088
1.545925E-6	-46.226937
1.54597E-6	-46.126102
1.546015E-6	-45.999804
1.54606E-6	-45.965363
1.546105E-6	-45.980827
1.54615E-6	-45.972229
1.546195E-6	-45.975667
1.54624E-6	-45.963648
1.546285E-6	-45.980827
1.54633E-6	-46.057235
1.546375E-6	-46.185239
1.54642E-6	-46.274562
1.546465E-6	-46.313413
1.54651E-6	-46.317131
1.546555E-6	-46.337639
1.5466E-6	-46.33017
1.546645E-6	-46.34512
1.54669E-6	-46.33017
1.546735E-6	-46.256183
1.54678E-6	-46.13501
1.546825E-6	-46.044989
1.54687E-6	-46.024076
1.546915E-6	-46.03452
1.54696E-6	-46.022337
1.547005E-6	-46.010189
1.54705E-6	-46.029295
1.547095E-6	-46.057235
1.54714E-6	-46.143937
1.547185E-6	-46.265363
1.54723E-6	-46.348866
1.547275E-6	-46.377061
1.54732E-6	-46.373291
1.547365E-6	-46.38839
1.54741E-6	-46.392173
1.547455E-6	-46.390281
1.5475E-6	-46.367642
1.547545E-6	-46.29117
1.54759E-6	-46.163641
1.547635E-6	-46.099485
1.54768E-6	-46.083593
1.547725E-6	-46.055483
1.54777E-6	-46.064248
1.547815E-6	-46.066003
1.54786E-6	-46.080069
1.547905E-6	-46.117211
1.54795E-6	-46.221476
1.547995E-6	-46.339508
1.54804E-6	-46.399749
1.548085E-6	-46.428277
1.54813E-6	-46.439741
1.548175E-6	-46.447401
1.54822E-6	-46.447401
1.548265E-6	-46.439741
1.54831E-6	-46.403542
1.548355E-6	-46.311555
1.5484E-6	-46.196078
1.548445E-6	-46.124322
1.54849E-6	-46.106567
1.548535E-6	-46.101254
1.54858E-6	-46.106567
1.548625E-6	-46.120765
1.54867E-6	-46.129663
1.548715E-6	-46.17983
1.54876E-6	-46.274562
1.548805E-6	-46.377061
1.54885E-6	-46.456994
1.548895E-6	-46.476245
1.54894E-6	-46.476245
1.548985E-6	-46.480105
1.54903E-6	-46.468535
1.549075E-6	-46.447401
1.54912E-6	-46.42637
1.549165E-6	-46.317131
1.54921E-6	-46.192462
1.549255E-6	-46.152883
1.5493E-6	-46.124322
1.549345E-6	-46.124322
1.54939E-6	-46.131445
1.549435E-6	-46.13501
1.54948E-6	-46.140364
1.549525E-6	-46.192462
1.54957E-6	-46.313413
1.549615E-6	-46.430186
1.54966E-6	-46.474316
1.549705E-6	-46.495581
1.54975E-6	-46.483969
1.549795E-6	-46.449318
1.54984E-6	-46.322715
1.549885E-6	-45.495969
1.54993E-6	-36.197888
1.549975E-6	-27.272304
1.55002E-6	-23.525192
1.550065E-6	-22.296636
1.55011E-6	-22.084497
1.550155E-6	-22.030789
1.5502E-6	-22.028017
1.550245E-6	-22.084497
1.55029E-6	-22.757241
1.550335E-6	-25.508303
1.55038E-6	-31.749636
1.550425E-6	-41.27902
1.55047E-6	-45.362563
1.550515E-6	-46.261689
1.55056E-6	-46.413039
1.550605E-6	-46.443569
1.55065E-6	-46.455074
1.550695E-6	-46.455074
1.55074E-6	-46.397854
1.550785E-6	-46.252517
1.55083E-6	-46.154674
1.550875E-6	-46.111886
1.55092E-6	-46.115435
1.550965E-6	-46.129663
1.55101E-6	-46.11366
1.551055E-6	-46.110112
1.5511E-6	-46.11366
1.551145E-6	-46.206945
1.55119E-6	-46.343249
1.551235E-6	-46.443569
1.55128E-6	-46.483969
1.551325E-6	-46.474316
1.55137E-6	-46.478175
1.551415E-6	-46.458916
1.55146E-6	-46.466609
1.551505E-6	-46.445485
1.55155E-6	-46.346993
1.551595E-6	-46.20332
1.55164E-6	-46.095948
1.551685E-6	-46.088884
1.55173E-6	-46.099485
1.551775E-6	-46.088884
1.55182E-6	-46.076548
1.551865E-6	-46.062494
1.55191E-6	-46.095948
1.551955E-6	-46.199698
1.552E-6	-46.35074
1.552045E-6	-46.424463
1.55209E-6	-46.455074
1.552135E-6	-46.451236
1.55218E-6	-46.439741
1.552225E-6	-46.447401
1.55227E-6	-46.449318
1.552315E-6	-46.418747
1.55236E-6	-46.311555
1.552405E-6	-46.133227
1.55245E-6	-46.06074
1.552495E-6	-46.043242
1.55254E-6	-46.069515
1.552585E-6	-46.057235
1.55263E-6	-46.046736
1.552675E-6	-46.036263
1.55272E-6	-46.081831
1.552765E-6	-46.217839
1.55281E-6	-46.352614
1.552855E-6	-46.420652
1.5529E-6	-46.422557
1.552945E-6	-46.422557
1.55299E-6	-46.420652
1.553035E-6	-46.413039
1.55308E-6	-46.414941
1.553125E-6	-46.375175
1.55317E-6	-46.221476
1.553215E-6	-46.095948
1.55326E-6	-46.044989
1.553305E-6	-46.036263
1.55335E-6	-46.0206
1.553395E-6	-46.008457
1.55344E-6	-46.003263
1.553485E-6	-46.004993
1.55353E-6	-46.064248
1.553575E-6	-46.210573
1.55362E-6	-46.34512
1.553665E-6	-46.390281
1.55371E-6	-46.399749
1.553755E-6	-46.409238
1.5538E-6	-46.401645
1.553845E-6	-46.407338
1.55389E-6	-46.403542
1.553935E-6	-46.343249
1.55398E-6	-46.20332
1.554025E-6	-46.069515
1.55407E-6	-45.999804
1.554115E-6	-46.008457
1.55416E-6	-45.99462
1.554205E-6	-45.980827
1.55425E-6	-45.975667
1.554295E-6	-45.992894
1.55434E-6	-46.055483
1.554385E-6	-46.20332
1.55443E-6	-46.324577
1.554475E-6	-46.375175
1.55452E-6	-46.390281
1.554565E-6	-46.397854
1.55461E-6	-46.40544
1.554655E-6	-46.399749
1.5547E-6	-46.375175
1.554745E-6	-46.304131
1.55479E-6	-46.169031
1.554835E-6	-46.03452
1.55488E-6	-45.984272
1.554925E-6	-45.958508
1.55497E-6	-45.951663
1.555015E-6	-45.948245
1.55506E-6	-45.948245
1.555105E-6	-45.96022
1.55515E-6	-46.050233
1.555195E-6	-46.185239
1.55524E-6	-46.307841
1.555285E-6	-46.348866
1.55533E-6	-46.382722
1.555375E-6	-46.382722
1.55542E-6	-46.377061
1.555465E-6	-46.375175
1.55551E-6	-46.356366
1.555555E-6	-46.283781
1.5556E-6	-46.136794
1.555645E-6	-46.015392
1.55569E-6	-45.965363
1.555735E-6	-45.943122
1.55578E-6	-45.934598
1.555825E-6	-45.934598
1.55587E-6	-45.946536
1.555915E-6	-45.963648
1.55596E-6	-46.046736
1.556005E-6	-46.17983
1.55605E-6	-46.322715
1.556095E-6	-46.369524
1.55614E-6	-46.390281
1.556185E-6	-46.390281
1.55623E-6	-46.380834
1.556275E-6	-46.375175
1.55632E-6	-46.365761
1.556365E-6	-46.309698
1.55641E-6	-46.138579
1.556455E-6	-46.004993
1.5565E-6	-45.956795
1.556545E-6	-45.951663
1.55659E-6	-45.944829
1.556635E-6	-45.946536
1.55668E-6	-45.949953
1.556725E-6	-45.968795
1.55677E-6	-46.041496
1.556815E-6	-46.208759
1.55686E-6	-46.332036
1.556905E-6	-46.38461
1.55695E-6	-46.40544
1.556995E-6	-46.40544
1.55704E-6	-46.399749
1.557085E-6	-46.3865
1.55713E-6	-46.394066
1.557175E-6	-46.313413
1.55722E-6	-46.167233
1.557265E-6	-46.036263
1.55731E-6	-45.967079
1.557355E-6	-45.958508
1.5574E-6	-45.975667
1.557445E-6	-45.991168
1.55749E-6	-45.998075
1.557535E-6	-45.998075
1.55758E-6	-46.080069
1.557625E-6	-46.248853
1.55767E-6	-46.394066
1.557715E-6	-46.445485
1.55776E-6	-46.458916
1.557805E-6	-46.449318
1.55785E-6	-46.443569
1.557895E-6	-46.445485
1.55794E-6	-46.449318
1.557985E-6	-46.371407
1.55803E-6	-46.217839
1.558075E-6	-46.074789
1.55812E-6	-46.029295
1.558165E-6	-46.024076
1.55821E-6	-46.041496
1.558255E-6	-46.043242
1.5583E-6	-46.048484
1.558345E-6	-46.07303
1.55839E-6	-46.143937
1.558435E-6	-46.328305
1.55848E-6	-46.474316
1.558525E-6	-46.522798
1.55857E-6	-46.534514
1.558615E-6	-46.522798
1.55866E-6	-46.522798
1.558705E-6	-46.534514
1.55875E-6	-46.546263
1.558795E-6	-46.458916
1.55884E-6	-46.29672
1.558885E-6	-46.167233
1.55893E-6	-46.136794
1.558975E-6	-46.143937
1.55902E-6	-46.158259
1.559065E-6	-46.165437
1.55911E-6	-46.158259
1.559155E-6	-46.181632
1.5592E-6	-46.278247
1.559245E-6	-46.443569
1.55929E-6	-46.599527
1.559335E-6	-46.629403
1.55938E-6	-46.639407
1.559425E-6	-46.645421
1.55947E-6	-46.665527
1.559515E-6	-46.689778
1.55956E-6	-46.687752
1.559605E-6	-46.597542
1.55965E-6	-46.435917
1.559695E-6	-46.315272
1.55974E-6	-46.272721
1.559785E-6	-46.29672
1.55983E-6	-46.309698
1.559875E-6	-46.315272
1.55992E-6	-46.317131
1.559965E-6	-46.333903
1.56001E-6	-46.435917
1.560055E-6	-46.611453
1.5601E-6	-46.74895
1.560145E-6	-46.79646
1.56019E-6	-46.802695
1.560235E-6	-46.817279
1.56028E-6	-46.821455
1.560325E-6	-46.840297
1.56037E-6	-46.829819
1.560415E-6	-46.761294
1.56046E-6	-46.607474
1.560505E-6	-46.493644
1.56055E-6	-46.472388
1.560595E-6	-46.478175
1.56064E-6	-46.487837
1.560685E-6	-46.478175
1.56073E-6	-46.487837
1.560775E-6	-46.516951
1.56082E-6	-46.617428
1.560865E-6	-46.781945
1.56091E-6	-46.91009
1.560955E-6	-46.946486
1.561E-6	-46.96372
1.561045E-6	-46.985359
1.56109E-6	-46.991872
1.561135E-6	-47.018021
1.56118E-6	-47.007107
1.561225E-6	-46.937895
1.56127E-6	-46.79646
1.561315E-6	-46.685727
1.56136E-6	-46.675615
1.561405E-6	-46.677636
1.56145E-6	-46.683703
1.561495E-6	-46.679657
1.56154E-6	-46.697892
1.561585E-6	-46.7305
1.56163E-6	-46.808939
1.561675E-6	-46.968039
1.56172E-6	-47.090754
1.561765E-6	-47.146678
1.56181E-6	-47.153437
1.561855E-6	-47.176045
1.5619E-6	-47.191941
1.561945E-6	-47.198771
1.56199E-6	-47.196493
1.562035E-6	-47.142177
1.56208E-6	-47.028963
1.562125E-6	-46.920763
1.56217E-6	-46.88458
1.562215E-6	-46.880343
1.56226E-6	-46.880343
1.562305E-6	-46.890944
1.56235E-6	-46.903698
1.562395E-6	-46.931463
1.56244E-6	-47.018021
1.562485E-6	-47.146678
1.56253E-6	-47.269987
1.562575E-6	-47.321246
1.56262E-6	-47.347104
1.562665E-6	-47.382615
1.56271E-6	-47.399286
1.562755E-6	-47.401673
1.5628E-6	-47.404061
1.562845E-6	-47.349462
1.56289E-6	-47.244583
1.562935E-6	-47.146678
1.56298E-6	-47.10634
1.563025E-6	-47.099654
1.56307E-6	-47.095202
1.563115E-6	-47.097427
1.56316E-6	-47.119745
1.563205E-6	-47.162466
1.56325E-6	-47.221617
1.563295E-6	-47.337683
1.56334E-6	-47.476325
1.563385E-6	-47.539941
1.56343E-6	-47.562181
1.563475E-6	-47.597004
1.56352E-6	-47.589518
1.563565E-6	-47.599502
1.56361E-6	-47.619539
1.563655E-6	-47.587026
1.5637E-6	-47.508016
1.563745E-6	-47.394516
1.56379E-6	-47.347104
1.563835E-6	-47.32359
1.56388E-6	-47.337683
1.563925E-6	-47.349462
1.56397E-6	-47.382615
1.564015E-6	-47.404061
1.56406E-6	-47.459355
1.564105E-6	-47.552282
1.56415E-6	-47.685304
1.564195E-6	-47.754669
1.56424E-6	-47.806775
1.564285E-6	-47.801536
1.56433E-6	-47.81202
1.564375E-6	-47.822529
1.56442E-6	-47.827793
1.564465E-6	-47.817271
1.56451E-6	-47.749493
1.564555E-6	-47.642191
1.5646E-6	-47.584535
1.564645E-6	-47.589518
1.56469E-6	-47.609509
1.564735E-6	-47.619539
1.56478E-6	-47.632109
1.564825E-6	-47.647241
1.56487E-6	-47.682756
1.564915E-6	-47.780644
1.56496E-6	-47.910215
1.565005E-6	-48.002448
1.56505E-6	-48.032713
1.565095E-6	-48.054857
1.56514E-6	-48.071539
1.565185E-6	-48.074325
1.56523E-6	-48.08549
1.565275E-6	-48.099486
1.56532E-6	-48.041003
1.565365E-6	-47.929045
1.56541E-6	-47.87546
1.565455E-6	-47.859513
1.5655E-6	-47.880789
1.565545E-6	-47.907532
1.56559E-6	-47.923656
1.565635E-6	-47.92635
1.56568E-6	-47.950665
1.565725E-6	-48.046539
1.56577E-6	-48.173001
1.565815E-6	-48.256494
1.56586E-6	-48.294449
1.565905E-6	-48.315025
1.56595E-6	-48.315025
1.565995E-6	-48.326827
1.56604E-6	-48.350526
1.566085E-6	-48.350526
1.56613E-6	-48.309136
1.566175E-6	-48.215987
1.56622E-6	-48.158766
1.566265E-6	-48.150248
1.56631E-6	-48.150248
1.566355E-6	-48.181564
1.5664E-6	-48.195874
1.566445E-6	-48.213108
1.56649E-6	-48.227522
1.566535E-6	-48.297383
1.56658E-6	-48.422411
1.566625E-6	-48.513973
1.56667E-6	-48.548036
1.566715E-6	-48.544928
1.56676E-6	-48.557372
1.566805E-6	-48.576105
1.56685E-6	-48.610661
1.566895E-6	-48.610661
1.56694E-6	-48.585502
1.566985E-6	-48.495506
1.56703E-6	-48.44664
1.567075E-6	-48.443604
1.56712E-6	-48.4649
1.567165E-6	-48.492436
1.56721E-6	-48.507809
1.567255E-6	-48.517059
1.5673E-6	-48.526329
1.567345E-6	-48.601209
1.56739E-6	-48.728952
1.567435E-6	-48.823973
1.56748E-6	-48.867253
1.567525E-6	-48.887375
1.56757E-6	-48.9279
1.567615E-6	-48.979095
1.56766E-6	-49.017025
1.567705E-6	-49.04482
1.56775E-6	-49.048306
1.567795E-6	-49.003194
1.56784E-6	-48.992849
1.567885E-6	-49.017025
1.56793E-6	-49.069287
1.567975E-6	-49.132843
1.56802E-6	-49.179331
1.568065E-6	-49.229957
1.56811E-6	-49.321855
1.568155E-6	-49.408154
1.5682E-6	-49.550685
1.568245E-6	-49.702105
1.56829E-6	-49.796387
1.568335E-6	-49.888526
1.56838E-6	-49.961088
1.568425E-6	-50.078885
1.56847E-6	-50.168249
1.568515E-6	-50.253962
1.56856E-6	-50.341401
1.568605E-6	-50.377728
1.56865E-6	-50.44649
1.568695E-6	-50.543345
1.56874E-6	-50.659057
1.568785E-6	-50.772227
1.56883E-6	-50.900163
1.568875E-6	-51.014394
1.56892E-6	-51.136785
1.568965E-6	-51.276689
1.56901E-6	-51.441176
1.569055E-6	-51.603963
1.5691E-6	-51.753536
1.569145E-6	-51.877553
1.56919E-6	-52.019712
1.569235E-6	-52.112661
1.56928E-6	-52.247537
1.569325E-6	-52.36123
1.56937E-6	-52.479516
1.569415E-6	-52.556288
1.56946E-6	-52.617746
1.569505E-6	-52.733543
1.56955E-6	-52.824127
1.569595E-6	-52.936236
1.56964E-6	-53.021606
1.569685E-6	-53.127387
1.56973E-6	-53.224843
1.569775E-6	-53.351701
1.56982E-6	-53.446694
1.569865E-6	-53.533023
1.56991E-6	-53.639135
1.569955E-6	-53.733517
1.57E-6	-53.816381
