Wavelength (nm)	Power (dBm)
1.525E-6	-65.702477
1.525045E-6	-65.641556
1.52509E-6	-66.208759
1.525135E-6	-68.285661
1.52518E-6	-71.763954
1.525225E-6	-76.575773
1.52527E-6	-79.100949
1.525315E-6	-79.854795
1.52536E-6	-79.909743
1.525405E-6	-80.281214
1.52545E-6	-76.821455
1.525495E-6	-71.087414
1.52554E-6	-66.635403
1.525585E-6	-64.953932
1.52563E-6	-64.423725
1.525675E-6	-64.249277
1.52572E-6	-64.072682
1.525765E-6	-63.889143
1.52581E-6	-63.783045
1.525855E-6	-64.084902
1.5259E-6	-65.76918
1.525945E-6	-69.578184
1.52599E-6	-74.49894
1.526035E-6	-78.610661
1.52608E-6	-78.591778
1.526125E-6	-78.965384
1.52617E-6	-79.139963
1.526215E-6	-77.4958
1.52626E-6	-71.210189
1.526305E-6	-65.885487
1.52635E-6	-63.734543
1.526395E-6	-63.019865
1.52644E-6	-62.825792
1.526485E-6	-62.735988
1.52653E-6	-62.597953
1.526575E-6	-62.575891
1.52662E-6	-62.740884
1.526665E-6	-64.007721
1.52671E-6	-67.142177
1.526755E-6	-71.817741
1.5268E-6	-77.178312
1.526845E-6	-79.554602
1.52689E-6	-79.065783
1.526935E-6	-79.266483
1.52698E-6	-77.8199
1.527025E-6	-71.780282
1.52707E-6	-65.638374
1.527115E-6	-62.823295
1.52716E-6	-61.856192
1.527205E-6	-61.61025
1.52725E-6	-61.515645
1.527295E-6	-61.43936
1.52734E-6	-61.366177
1.527385E-6	-61.466669
1.52743E-6	-62.353756
1.527475E-6	-64.907975
1.52752E-6	-69.804683
1.527565E-6	-74.960732
1.52761E-6	-78.651856
1.527655E-6	-78.955129
1.5277E-6	-79.30702
1.527745E-6	-78.658229
1.52779E-6	-73.060973
1.527835E-6	-65.931193
1.52788E-6	-62.496459
1.527925E-6	-61.034738
1.52797E-6	-60.66108
1.528015E-6	-60.583395
1.52806E-6	-60.520274
1.528105E-6	-60.464336
1.52815E-6	-60.459506
1.528195E-6	-61.036392
1.52824E-6	-63.00249
1.528285E-6	-67.311881
1.52833E-6	-72.695407
1.528375E-6	-77.589518
1.52842E-6	-79.168559
1.528465E-6	-78.820662
1.52851E-6	-78.982529
1.528555E-6	-74.399738
1.5286E-6	-66.732546
1.528645E-6	-62.458046
1.52869E-6	-60.535969
1.528735E-6	-59.93962
1.52878E-6	-59.808837
1.528825E-6	-59.75925
1.52887E-6	-59.742846
1.528915E-6	-59.730584
1.52896E-6	-60.025699
1.529005E-6	-61.47581
1.52905E-6	-64.981195
1.529095E-6	-70.015663
1.52914E-6	-75.83859
1.529185E-6	-77.517814
1.52923E-6	-77.07301
1.529275E-6	-74.314463
1.52932E-6	-67.302536
1.529365E-6	-52.590061
1.52941E-6	-41.165657
1.529455E-6	-36.93575
1.5295E-6	-35.425723
1.529545E-6	-34.972998
1.52959E-6	-34.843911
1.529635E-6	-34.789927
1.52968E-6	-34.758636
1.529725E-6	-35.477534
1.52977E-6	-38.247782
1.529815E-6	-44.327383
1.52986E-6	-55.980827
1.529905E-6	-63.530085
1.52995E-6	-69.901244
1.529995E-6	-74.49894
1.53004E-6	-76.565914
1.530085E-6	-77.274622
1.53013E-6	-71.489252
1.530175E-6	-64.130753
1.53022E-6	-60.647447
1.530265E-6	-59.233596
1.53031E-6	-58.894103
1.530355E-6	-58.830604
1.5304E-6	-58.76475
1.530445E-6	-58.777841
1.53049E-6	-58.823973
1.530535E-6	-59.389247
1.53058E-6	-61.406815
1.530625E-6	-65.738142
1.53067E-6	-71.210189
1.530715E-6	-76.176227
1.53076E-6	-77.233085
1.530805E-6	-75.912514
1.53085E-6	-72.186037
1.530895E-6	-63.556599
1.53094E-6	-47.986029
1.530985E-6	-39.164974
1.53103E-6	-36.032777
1.531075E-6	-35.141367
1.53112E-6	-34.886515
1.531165E-6	-34.871822
1.53121E-6	-34.826721
1.531255E-6	-34.918745
1.5313E-6	-36.07303
1.531345E-6	-39.535048
1.53139E-6	-46.840297
1.531435E-6	-58.985966
1.53148E-6	-65.846927
1.531525E-6	-71.677466
1.53157E-6	-75.614577
1.531615E-6	-76.773673
1.53166E-6	-75.958508
1.531705E-6	-68.904215
1.53175E-6	-62.498775
1.531795E-6	-59.75104
1.53184E-6	-58.790972
1.531885E-6	-58.601209
1.53193E-6	-58.588639
1.531975E-6	-58.620133
1.53202E-6	-58.598063
1.532065E-6	-58.687022
1.53211E-6	-59.515582
1.532155E-6	-62.067686
1.5322E-6	-67.042131
1.532245E-6	-72.960212
1.53229E-6	-79.104481
1.532335E-6	-76.92504
1.53238E-6	-75.49443
1.532425E-6	-70.796158
1.53247E-6	-60.074907
1.532515E-6	-43.810111
1.53256E-6	-37.956087
1.532605E-6	-35.707323
1.53265E-6	-35.019653
1.532695E-6	-34.949858
1.53274E-6	-34.951215
1.532785E-6	-35.023794
1.53283E-6	-35.263671
1.532875E-6	-36.942188
1.53292E-6	-40.914614
1.532965E-6	-49.461536
1.53301E-6	-61.150348
1.533055E-6	-67.4958
1.5331E-6	-72.713216
1.533145E-6	-76.13501
1.53319E-6	-77.337683
1.533235E-6	-75.135695
1.53328E-6	-67.171514
1.533325E-6	-62.322506
1.53337E-6	-59.969705
1.533415E-6	-59.172146
1.53346E-6	-59.072794
1.533505E-6	-59.076303
1.53355E-6	-59.164974
1.533595E-6	-59.299621
1.53364E-6	-59.538952
1.533685E-6	-60.643416
1.53373E-6	-63.444774
1.533775E-6	-68.690233
1.53382E-6	-74.353339
1.533865E-6	-77.587026
1.53391E-6	-77.33298
1.533955E-6	-74.975729
1.534E-6	-70.144388
1.534045E-6	-58.175853
1.53409E-6	-42.961929
1.534135E-6	-37.532553
1.53418E-6	-35.479068
1.534225E-6	-34.963455
1.53427E-6	-34.936303
1.534315E-6	-35.010006
1.53436E-6	-35.125788
1.534405E-6	-35.547072
1.53445E-6	-37.356545
1.534495E-6	-41.609621
1.53454E-6	-50.871936
1.534585E-6	-62.092224
1.53463E-6	-68.374356
1.534675E-6	-73.643152
1.53472E-6	-76.118988
1.534765E-6	-77.311881
1.53481E-6	-75.104634
1.534855E-6	-68.332739
1.5349E-6	-63.300326
1.534945E-6	-61.281353
1.53499E-6	-60.680339
1.535035E-6	-60.602811
1.53508E-6	-60.614302
1.535125E-6	-60.664621
1.53517E-6	-60.737605
1.535215E-6	-60.993598
1.53526E-6	-62.168829
1.535305E-6	-65.249102
1.53535E-6	-69.842212
1.535395E-6	-75.670307
1.53544E-6	-77.574586
1.535485E-6	-77.594508
1.53553E-6	-75.101821
1.535575E-6	-69.625735
1.53562E-6	-56.621416
1.535665E-6	-42.504956
1.53571E-6	-37.276942
1.535755E-6	-35.310622
1.5358E-6	-34.853195
1.535845E-6	-34.85718
1.53589E-6	-34.964817
1.535935E-6	-35.064026
1.53598E-6	-35.537736
1.536025E-6	-37.639669
1.53607E-6	-42.24244
1.536115E-6	-52.238802
1.53616E-6	-61.688984
1.536205E-6	-69.262816
1.53625E-6	-73.972891
1.536295E-6	-76.825635
1.53634E-6	-77.780644
1.536385E-6	-76.208759
1.53643E-6	-69.314431
1.536475E-6	-64.49894
1.53652E-6	-62.501092
1.536565E-6	-61.971579
1.53661E-6	-61.890286
1.536655E-6	-61.901038
1.5367E-6	-61.920593
1.536745E-6	-61.979107
1.53679E-6	-62.248995
1.536835E-6	-63.436143
1.53688E-6	-66.470461
1.536925E-6	-71.178741
1.53697E-6	-76.322715
1.537015E-6	-78.133261
1.53706E-6	-77.173779
1.537105E-6	-75.382014
1.53715E-6	-69.948195
1.537195E-6	-56.798537
1.53724E-6	-42.592427
1.537285E-6	-37.498241
1.53733E-6	-35.49443
1.537375E-6	-35.022413
1.53742E-6	-34.972998
1.537465E-6	-34.996263
1.53751E-6	-35.022413
1.537555E-6	-35.433304
1.5376E-6	-37.408842
1.537645E-6	-42.076784
1.53769E-6	-51.845551
1.537735E-6	-61.110907
1.53778E-6	-69.125735
1.537825E-6	-73.868985
1.53787E-6	-76.769543
1.537915E-6	-77.6675
1.53796E-6	-76.243364
1.538005E-6	-70.188159
1.53805E-6	-65.262212
1.538095E-6	-63.188493
1.53814E-6	-62.542228
1.538185E-6	-62.48952
1.53823E-6	-62.474906
1.538275E-6	-62.458046
1.53832E-6	-62.473371
1.538365E-6	-62.653602
1.53841E-6	-63.768541
1.538455E-6	-66.815193
1.5385E-6	-71.185012
1.538545E-6	-75.831931
1.53859E-6	-77.9588
1.538635E-6	-77.442452
1.53868E-6	-75.81533
1.538725E-6	-70.680339
1.53877E-6	-58.917733
1.538815E-6	-43.558569
1.53886E-6	-37.972393
1.538905E-6	-35.764265
1.53895E-6	-35.144205
1.538995E-6	-35.029321
1.53904E-6	-35.007254
1.539085E-6	-34.949858
1.53913E-6	-35.257837
1.539175E-6	-37.048729
1.53922E-6	-41.314731
1.539265E-6	-50.757724
1.53931E-6	-62.19035
1.539355E-6	-68.507809
1.5394E-6	-73.181259
1.539445E-6	-76.542343
1.53949E-6	-77.337683
1.539535E-6	-76.221476
1.53958E-6	-70.390538
1.539625E-6	-65.313573
1.53967E-6	-63.161428
1.539715E-6	-62.416181
1.53976E-6	-62.2541
1.539805E-6	-62.248995
1.53985E-6	-62.21704
1.539895E-6	-62.214147
1.53994E-6	-62.39276
1.539985E-6	-63.393242
1.54003E-6	-66.205132
1.540075E-6	-70.476435
1.54012E-6	-75.62091
1.540165E-6	-78.119156
1.54021E-6	-77.639669
1.540255E-6	-76.03452
1.5403E-6	-71.557093
1.540345E-6	-60.937188
1.54039E-6	-44.513649
1.540435E-6	-38.392314
1.54048E-6	-35.816987
1.540525E-6	-35.124374
1.54057E-6	-34.945787
1.540615E-6	-34.886515
1.54066E-6	-34.835969
1.540705E-6	-35.05289
1.54075E-6	-36.587634
1.540795E-6	-40.323116
1.54084E-6	-49.048306
1.540885E-6	-60.757207
1.54093E-6	-67.293212
1.540975E-6	-72.807516
1.54102E-6	-76.08712
1.541065E-6	-77.915586
1.54111E-6	-76.639407
1.541155E-6	-70.983238
1.5412E-6	-65.282683
1.541245E-6	-62.782718
1.54129E-6	-61.907771
1.541335E-6	-61.685142
1.54138E-6	-61.653886
1.541425E-6	-61.632962
1.54147E-6	-61.592041
1.541515E-6	-61.724369
1.54156E-6	-62.496459
1.541605E-6	-64.758636
1.54165E-6	-69.550685
1.541695E-6	-74.268962
1.54174E-6	-76.623411
1.541785E-6	-78.035475
1.54183E-6	-76.285627
1.541875E-6	-72.475674
1.54192E-6	-63.811155
1.541965E-6	-47.723704
1.54201E-6	-38.996295
1.542055E-6	-35.946536
1.5421E-6	-35.127202
1.542145E-6	-34.895891
1.54219E-6	-34.828041
1.542235E-6	-34.80172
1.54228E-6	-34.866492
1.542325E-6	-35.914209
1.54237E-6	-39.233596
1.542415E-6	-46.35449
1.54246E-6	-58.207355
1.542505E-6	-65.252012
1.54255E-6	-71.125515
1.542595E-6	-75.394028
1.54264E-6	-77.144427
1.542685E-6	-76.970201
1.54273E-6	-72.415423
1.542775E-6	-65.888856
1.54282E-6	-62.716462
1.542865E-6	-61.527976
1.54291E-6	-61.227439
1.542955E-6	-61.211911
1.543E-6	-61.184442
1.543045E-6	-61.183301
1.54309E-6	-61.228015
1.543135E-6	-61.703746
1.54318E-6	-63.570411
1.543225E-6	-67.609509
1.54327E-6	-72.34108
1.543315E-6	-76.767479
1.54336E-6	-78.164455
1.543405E-6	-76.981023
1.54345E-6	-73.636124
1.543495E-6	-66.554113
1.54354E-6	-51.560202
1.543585E-6	-40.72373
1.54363E-6	-36.755118
1.543675E-6	-35.383514
1.54372E-6	-35.034855
1.543765E-6	-34.967542
1.54381E-6	-34.940365
1.543855E-6	-34.977095
1.5439E-6	-35.570501
1.543945E-6	-38.107905
1.54399E-6	-43.608124
1.544035E-6	-55.080783
1.54408E-6	-62.839131
1.544125E-6	-69.404366
1.54417E-6	-74.435769
1.544215E-6	-76.92718
1.54426E-6	-77.279262
1.544305E-6	-74.135252
1.54435E-6	-67.024583
1.544395E-6	-63.100699
1.54444E-6	-61.424263
1.544485E-6	-60.951763
1.54453E-6	-60.894823
1.544575E-6	-60.911934
1.54462E-6	-60.886293
1.544665E-6	-60.893222
1.54471E-6	-61.146388
1.544755E-6	-62.471836
1.5448E-6	-65.826944
1.544845E-6	-70.509029
1.54489E-6	-75.700863
1.544935E-6	-77.92635
1.54498E-6	-77.028963
1.545025E-6	-75.223001
1.54507E-6	-69.808837
1.545115E-6	-56.35449
1.54516E-6	-42.628074
1.545205E-6	-37.619539
1.54525E-6	-35.636783
1.545295E-6	-35.089186
1.54534E-6	-35.014138
1.545385E-6	-34.982563
1.54543E-6	-34.972998
1.545475E-6	-35.262212
1.54552E-6	-36.991872
1.545565E-6	-41.015491
1.54561E-6	-50.197239
1.545655E-6	-61.547159
1.5457E-6	-67.89414
1.545745E-6	-72.881928
1.54579E-6	-77.449688
1.545835E-6	-77.708303
1.54588E-6	-75.73001
1.545925E-6	-70.036197
1.54597E-6	-64.260846
1.546015E-6	-61.768519
1.54606E-6	-60.94366
1.546105E-6	-60.780535
1.54615E-6	-60.750491
1.546195E-6	-60.752556
1.54624E-6	-60.75514
1.546285E-6	-60.837567
1.54633E-6	-61.637392
1.546375E-6	-63.966391
1.54642E-6	-68.591778
1.546465E-6	-73.746875
1.54651E-6	-77.825161
1.546555E-6	-77.991495
1.5466E-6	-76.053732
1.546645E-6	-72.66883
1.54669E-6	-64.042834
1.546735E-6	-48.535619
1.54678E-6	-39.370422
1.546825E-6	-36.230582
1.54687E-6	-35.25638
1.546915E-6	-35.072396
1.54696E-6	-35.023794
1.547005E-6	-35.016894
1.54705E-6	-35.100415
1.547095E-6	-35.943122
1.54714E-6	-38.975663
1.547185E-6	-45.323919
1.54723E-6	-57.321246
1.547275E-6	-64.506288
1.54732E-6	-70.594835
1.547365E-6	-74.986668
1.54741E-6	-76.9897
1.547455E-6	-77.75726
1.5475E-6	-73.053948
1.547545E-6	-66.118988
1.54759E-6	-62.590849
1.547635E-6	-61.117082
1.54768E-6	-60.760828
1.547725E-6	-60.695094
1.54777E-6	-60.702746
1.547815E-6	-60.749459
1.54786E-6	-60.766523
1.547905E-6	-61.150348
1.54795E-6	-62.644011
1.547995E-6	-66.101254
1.54804E-6	-71.093555
1.548085E-6	-76.569855
1.54813E-6	-77.210179
1.548175E-6	-76.771607
1.54822E-6	-75.037625
1.548265E-6	-69.321855
1.54831E-6	-55.194182
1.548355E-6	-42.341825
1.5484E-6	-37.432823
1.548445E-6	-35.586191
1.54849E-6	-35.093393
1.548535E-6	-35.010006
1.54858E-6	-34.977095
1.548625E-6	-34.989407
1.54867E-6	-35.32836
1.548715E-6	-37.084092
1.54876E-6	-41.364987
1.548805E-6	-50.721679
1.54885E-6	-61.89633
1.548895E-6	-68.068754
1.54894E-6	-73.07682
1.548985E-6	-76.373291
1.54903E-6	-77.609509
1.549075E-6	-75.991168
1.54912E-6	-69.673812
1.549165E-6	-64.22968
1.54921E-6	-61.758742
1.549255E-6	-60.927499
1.5493E-6	-60.749459
1.549345E-6	-60.732461
1.54939E-6	-60.718091
1.549435E-6	-60.716554
1.54948E-6	-60.817075
1.549525E-6	-61.565803
1.54957E-6	-63.788237
1.549615E-6	-68.326827
1.54966E-6	-73.509574
1.549705E-6	-77.283907
1.54975E-6	-77.530093
1.549795E-6	-76.950788
1.54984E-6	-72.989504
1.549885E-6	-64.855851
1.54993E-6	-49.237237
1.549975E-6	-39.597934
1.55002E-6	-36.17983
1.550065E-6	-35.152732
1.55011E-6	-34.90932
1.550155E-6	-34.887853
1.5502E-6	-34.882503
1.550245E-6	-34.905286
1.55029E-6	-35.486742
1.550335E-6	-37.999707
1.55038E-6	-43.746875
1.550425E-6	-55.214335
1.55047E-6	-62.879399
1.550515E-6	-69.362914
1.55056E-6	-74.685211
1.550605E-6	-76.695862
1.55065E-6	-77.146678
1.550695E-6	-73.934037
1.55074E-6	-66.757175
1.550785E-6	-62.946495
1.55083E-6	-61.219955
1.550875E-6	-60.733489
1.55092E-6	-60.656026
1.550965E-6	-60.616805
1.55101E-6	-60.591848
1.551055E-6	-60.603809
1.5511E-6	-60.866631
1.551145E-6	-62.064191
1.55119E-6	-65.108856
1.551235E-6	-69.779843
1.55128E-6	-75.37153
1.551325E-6	-77.272304
1.55137E-6	-77.101882
1.551415E-6	-75.941416
1.55146E-6	-71.311793
1.551505E-6	-60.835987
1.55155E-6	-44.585456
1.551595E-6	-38.416375
1.55164E-6	-35.851937
1.551685E-6	-35.179844
1.55173E-6	-35.057062
1.551775E-6	-35.029321
1.55182E-6	-35.011383
1.551865E-6	-35.141367
1.55191E-6	-36.326441
1.551955E-6	-39.649707
1.552E-6	-47.16925
1.552045E-6	-58.996295
1.55209E-6	-65.914209
1.552135E-6	-71.560824
1.55218E-6	-75.820304
1.552225E-6	-77.137681
1.55227E-6	-77.256112
1.552315E-6	-71.736012
1.55236E-6	-65.208568
1.552405E-6	-62.03495
1.55245E-6	-60.827046
1.552495E-6	-60.547777
1.55254E-6	-60.533513
1.552585E-6	-60.518806
1.55263E-6	-60.490513
1.552675E-6	-60.519295
1.55272E-6	-60.936111
1.552765E-6	-62.640819
1.55281E-6	-66.441655
1.552855E-6	-71.373916
1.5529E-6	-76.046736
1.552945E-6	-77.50557
1.55299E-6	-77.128704
1.553035E-6	-74.447846
1.55308E-6	-68.520147
1.553125E-6	-54.315636
1.55317E-6	-41.665979
1.553215E-6	-37.095202
1.55326E-6	-35.425723
1.553305E-6	-35.001755
1.55335E-6	-34.93495
1.553395E-6	-34.866492
1.55344E-6	-34.853195
1.553485E-6	-35.179844
1.55353E-6	-36.955095
1.553575E-6	-41.062382
1.55362E-6	-50.26595
1.553665E-6	-61.379879
1.55371E-6	-67.746907
1.553755E-6	-72.782718
1.5538E-6	-76.104795
1.553845E-6	-77.476325
1.55389E-6	-75.980827
1.553935E-6	-69.503944
1.55398E-6	-63.91688
1.554025E-6	-61.37809
1.55407E-6	-60.560605
1.554115E-6	-60.384365
1.55416E-6	-60.372993
1.554205E-6	-60.332015
1.55425E-6	-60.304909
1.554295E-6	-60.381519
1.55434E-6	-61.086856
1.554385E-6	-63.201181
1.55443E-6	-67.517814
1.554475E-6	-72.861736
1.55452E-6	-76.550186
1.554565E-6	-78.193008
1.55461E-6	-76.42637
1.554655E-6	-73.412257
1.5547E-6	-66.210573
1.554745E-6	-51.244757
1.55479E-6	-40.439757
1.554835E-6	-36.663512
1.55488E-6	-35.428754
1.554925E-6	-35.09199
1.55497E-6	-35.019653
1.555015E-6	-34.990778
1.55506E-6	-35.00863
1.555105E-6	-35.456125
1.55515E-6	-37.500682
1.555195E-6	-42.402566
1.55524E-6	-52.381473
1.555285E-6	-61.458762
1.55533E-6	-69.164974
1.555375E-6	-73.763373
1.55542E-6	-76.505282
1.555465E-6	-77.135435
1.55551E-6	-74.956651
1.555555E-6	-68.256494
1.5556E-6	-63.110465
1.555645E-6	-61.01604
1.55569E-6	-60.308638
1.555735E-6	-60.170055
1.55578E-6	-60.168249
1.555825E-6	-60.189973
1.55587E-6	-60.176383
1.555915E-6	-60.316105
1.55596E-6	-61.114274
1.556005E-6	-63.621102
1.55605E-6	-68.350526
1.556095E-6	-73.503731
1.55614E-6	-77.164726
1.556185E-6	-77.411234
1.55623E-6	-76.631402
1.556275E-6	-72.97828
1.55632E-6	-64.680104
1.556365E-6	-49.237237
1.55641E-6	-39.746941
1.556455E-6	-36.337639
1.5565E-6	-35.278289
1.556545E-6	-34.993519
1.55659E-6	-34.945787
1.556635E-6	-34.988038
1.55668E-6	-35.014138
1.556725E-6	-35.55799
1.55677E-6	-37.966951
1.556815E-6	-43.459198
1.55686E-6	-54.558079
1.556905E-6	-62.427558
1.55695E-6	-69.020489
1.556995E-6	-74.430947
1.55704E-6	-76.728455
1.557085E-6	-77.452103
1.55713E-6	-74.602968
1.557175E-6	-67.23768
1.55722E-6	-62.812493
1.557265E-6	-60.888424
1.55731E-6	-60.309104
1.557355E-6	-60.200421
1.5574E-6	-60.192696
1.557445E-6	-60.209071
1.55749E-6	-60.205427
1.557535E-6	-60.350807
1.55758E-6	-61.254022
1.557625E-6	-63.887016
1.55767E-6	-68.850556
1.557715E-6	-73.985919
1.55776E-6	-77.14893
1.557805E-6	-77.537477
1.55785E-6	-76.577748
1.557895E-6	-72.709162
1.55794E-6	-64.30392
1.557985E-6	-48.784402
1.55803E-6	-39.554602
1.558075E-6	-36.252517
1.55812E-6	-35.141367
1.558165E-6	-34.89455
1.55821E-6	-34.863829
1.558255E-6	-34.882503
1.5583E-6	-34.920093
1.558345E-6	-35.595632
1.55839E-6	-38.236193
1.558435E-6	-43.982659
1.55848E-6	-55.410601
1.558525E-6	-63.009431
1.55857E-6	-69.54677
1.558615E-6	-74.528409
1.55866E-6	-77.18285
1.558705E-6	-77.682756
1.55875E-6	-74.825402
1.558795E-6	-67.380238
1.55884E-6	-62.988639
1.558885E-6	-61.05961
1.55893E-6	-60.51587
1.558975E-6	-60.437355
1.55902E-6	-60.433514
1.559065E-6	-60.45661
1.55911E-6	-60.440718
1.559155E-6	-60.594835
1.5592E-6	-61.527976
1.559245E-6	-64.100504
1.55929E-6	-68.924509
1.559335E-6	-74.15895
1.55938E-6	-77.599502
1.559425E-6	-77.6675
1.55947E-6	-76.365761
1.559515E-6	-72.452695
1.55956E-6	-64.036229
1.559605E-6	-48.294449
1.55965E-6	-39.233596
1.559695E-6	-36.104795
1.55974E-6	-35.130031
1.559785E-6	-34.956651
1.55983E-6	-34.958011
1.559875E-6	-35.011383
1.55992E-6	-35.120137
1.559965E-6	-35.756084
1.56001E-6	-38.320922
1.560055E-6	-43.889143
1.5601E-6	-55.448505
1.560145E-6	-63.020736
1.56019E-6	-69.554602
1.560235E-6	-74.87983
1.56028E-6	-76.848697
1.560325E-6	-77.670039
1.56037E-6	-75.465288
1.560415E-6	-68.541823
1.56046E-6	-63.65926
1.560505E-6	-61.662156
1.56055E-6	-61.082953
1.560595E-6	-60.991415
1.56064E-6	-61.001248
1.560685E-6	-61.024829
1.56073E-6	-61.045222
1.560775E-6	-61.190721
1.56082E-6	-62.063493
1.560865E-6	-64.549404
1.56091E-6	-69.393022
1.560955E-6	-74.569258
1.561E-6	-77.230789
1.561045E-6	-78.195874
1.56109E-6	-76.68168
1.561135E-6	-73.028579
1.56118E-6	-64.979828
1.561225E-6	-49.438577
1.56127E-6	-39.558524
1.561315E-6	-36.122543
1.56136E-6	-35.077985
1.561405E-6	-34.875825
1.56145E-6	-34.887853
1.561495E-6	-34.945787
1.56154E-6	-35.025175
1.561585E-6	-35.62091
1.56163E-6	-38.021683
1.561675E-6	-43.292904
1.56172E-6	-54.426131
1.561765E-6	-62.340336
1.56181E-6	-69.010104
1.561855E-6	-74.198737
1.5619E-6	-77.430418
1.561945E-6	-77.75208
1.56199E-6	-76.136794
1.562035E-6	-70.13273
1.56208E-6	-64.92279
1.562125E-6	-62.649603
1.56217E-6	-61.955198
1.562215E-6	-61.807852
1.56226E-6	-61.820382
1.562305E-6	-61.866192
1.56235E-6	-61.886261
1.562395E-6	-62.001772
1.56244E-6	-62.652002
1.562485E-6	-64.832003
1.56253E-6	-69.200955
1.562575E-6	-73.924378
1.56262E-6	-77.910215
1.562665E-6	-78.513973
1.56271E-6	-77.685304
1.562755E-6	-74.163479
1.5628E-6	-68.052082
1.562845E-6	-53.221194
1.56289E-6	-40.923737
1.562935E-6	-36.695862
1.56298E-6	-35.22011
1.563025E-6	-34.9026
1.56307E-6	-34.920093
1.563115E-6	-34.992148
1.56316E-6	-35.111674
1.563205E-6	-35.509847
1.56325E-6	-37.392133
1.563295E-6	-41.725661
1.56334E-6	-51.344815
1.563385E-6	-62.270918
1.56343E-6	-68.588639
1.563475E-6	-73.500813
1.56352E-6	-76.952941
1.563565E-6	-77.119745
1.56361E-6	-76.742791
1.563655E-6	-72.517344
1.5637E-6	-66.786087
1.563745E-6	-64.017568
1.56379E-6	-63.074174
1.563835E-6	-62.88699
1.56388E-6	-62.87182
1.563925E-6	-62.927706
1.56397E-6	-62.973972
1.564015E-6	-63.031196
1.56406E-6	-63.430398
1.564105E-6	-65.202808
1.56415E-6	-68.884015
1.564195E-6	-73.459198
1.56424E-6	-77.086311
1.564285E-6	-78.247782
1.56433E-6	-77.670039
1.564375E-6	-76.031036
1.56442E-6	-70.519295
1.564465E-6	-58.706324
1.56451E-6	-43.223018
1.564555E-6	-37.554755
1.5646E-6	-35.482136
1.564645E-6	-34.960732
1.56469E-6	-34.955291
1.564735E-6	-35.059846
1.56478E-6	-35.179844
1.564825E-6	-35.428754
1.56487E-6	-36.784016
1.564915E-6	-40.22505
1.56496E-6	-48.23041
1.565005E-6	-60.05991
1.56505E-6	-66.499459
1.565095E-6	-72.25483
1.56514E-6	-76.522798
1.565185E-6	-77.452103
1.56523E-6	-78.738686
1.565275E-6	-74.854522
1.56532E-6	-69.562449
1.565365E-6	-65.803746
1.56541E-6	-64.518564
1.565455E-6	-64.163479
1.5655E-6	-64.137504
1.565545E-6	-64.241197
1.56559E-6	-64.237739
1.565635E-6	-64.277094
1.56568E-6	-64.561802
1.565725E-6	-65.782316
1.56577E-6	-68.90759
1.565815E-6	-73.217548
1.56586E-6	-76.844495
1.565905E-6	-78.392314
1.56595E-6	-78.273971
1.565995E-6	-77.233085
1.56604E-6	-72.722148
1.566085E-6	-63.657243
1.56613E-6	-48.201611
1.566175E-6	-38.999743
1.56622E-6	-35.932895
1.566265E-6	-35.103227
1.56631E-6	-35.032087
1.566355E-6	-35.124374
1.5664E-6	-35.246194
1.566445E-6	-35.424209
1.56649E-6	-36.337639
1.566535E-6	-39.333014
1.56658E-6	-45.540846
1.566625E-6	-57.300203
1.56667E-6	-64.715976
1.566715E-6	-70.995782
1.56676E-6	-75.597208
1.566805E-6	-77.682756
1.56685E-6	-78.167302
1.566895E-6	-77.520267
1.56694E-6	-72.382976
1.566985E-6	-68.320922
1.56703E-6	-66.103025
1.567075E-6	-65.600361
1.56712E-6	-65.531523
1.567165E-6	-65.536182
1.56721E-6	-65.595632
1.567255E-6	-65.636783
1.5673E-6	-65.788899
1.567345E-6	-66.556077
1.56739E-6	-68.910969
1.567435E-6	-72.244624
1.56748E-6	-76.742791
1.567525E-6	-78.50473
1.56757E-6	-79.562449
1.567615E-6	-79.531148
1.56766E-6	-79.952488
1.567705E-6	-78.449678
1.56775E-6	-74.126258
1.567795E-6	-69.535048
1.56784E-6	-67.039933
1.567885E-6	-66.371407
1.56793E-6	-66.267201
1.567975E-6	-66.318991
1.56802E-6	-66.221476
1.568065E-6	-66.352614
1.56811E-6	-66.416844
1.568155E-6	-66.93575
1.5682E-6	-68.814046
1.568245E-6	-72.077484
1.56829E-6	-76.187044
1.568335E-6	-79.111554
1.56838E-6	-79.325572
1.568425E-6	-79.880069
1.56847E-6	-79.515582
1.568515E-6	-79.846402
1.56856E-6	-75.968795
1.568605E-6	-70.888957
1.56865E-6	-68.17015
1.568695E-6	-67.180581
1.56874E-6	-66.92504
1.568785E-6	-66.846595
1.56883E-6	-66.961562
1.568875E-6	-67.022395
1.56892E-6	-67.028963
1.568965E-6	-67.368375
1.56901E-6	-68.979095
1.569055E-6	-71.708893
1.5691E-6	-75.934598
1.569145E-6	-79.003194
1.56919E-6	-78.800846
1.569235E-6	-79.34047
1.56928E-6	-79.19013
1.569325E-6	-79.681877
1.56937E-6	-77.929045
1.569415E-6	-72.467234
1.56946E-6	-69.310724
1.569505E-6	-67.994231
1.56955E-6	-67.62205
1.569595E-6	-67.607005
1.56964E-6	-67.619539
1.569685E-6	-67.695511
1.56973E-6	-67.723704
1.569775E-6	-67.92635
1.56982E-6	-69.226321
1.569865E-6	-71.533537
1.56991E-6	-75.579908
1.569955E-6	-78.90759
1.57E-6	-79.702105
