Wavelength (nm)	Power (dBm)
1.525E-6	-48.22175
1.525045E-6	-48.130437
1.52509E-6	-48.04931
1.525135E-6	-47.947956
1.52518E-6	-47.840982
1.525225E-6	-47.744323
1.52527E-6	-47.659892
1.525315E-6	-47.56962
1.52536E-6	-47.4958
1.525405E-6	-47.396901
1.52545E-6	-47.300203
1.525495E-6	-47.2262
1.52554E-6	-47.139929
1.525585E-6	-47.059749
1.52563E-6	-46.996219
1.525675E-6	-46.905828
1.52572E-6	-46.813107
1.525765E-6	-46.73869
1.52581E-6	-46.665527
1.525855E-6	-46.595559
1.5259E-6	-46.528652
1.525945E-6	-46.462761
1.52599E-6	-46.3865
1.526035E-6	-46.337639
1.52608E-6	-46.276404
1.526125E-6	-46.210573
1.52617E-6	-46.117211
1.526215E-6	-46.044989
1.52626E-6	-46.004993
1.526305E-6	-45.936302
1.52635E-6	-45.872036
1.526395E-6	-45.81533
1.52644E-6	-45.751184
1.526485E-6	-45.697636
1.52653E-6	-45.639965
1.526575E-6	-45.573635
1.52662E-6	-45.547072
1.526665E-6	-45.49443
1.52671E-6	-45.44546
1.526755E-6	-45.397037
1.5268E-6	-45.368539
1.526845E-6	-45.298836
1.52689E-6	-45.269512
1.526935E-6	-45.205687
1.52698E-6	-45.164127
1.527025E-6	-45.127202
1.52707E-6	-45.093393
1.527115E-6	-45.015516
1.52716E-6	-44.988038
1.527205E-6	-44.933597
1.52725E-6	-44.89321
1.527295E-6	-44.870489
1.52734E-6	-44.821446
1.527385E-6	-44.812229
1.52743E-6	-44.784697
1.527475E-6	-44.727569
1.52752E-6	-44.709548
1.527565E-6	-44.712118
1.52761E-6	-44.661009
1.527655E-6	-44.625587
1.5277E-6	-44.609239
1.527745E-6	-44.592952
1.52779E-6	-44.561802
1.527835E-6	-44.53334
1.52788E-6	-44.497716
1.527925E-6	-44.458744
1.52797E-6	-44.433357
1.528015E-6	-44.42132
1.52806E-6	-44.404524
1.528105E-6	-44.397346
1.52815E-6	-44.369938
1.528195E-6	-44.361631
1.52824E-6	-44.354523
1.528285E-6	-44.349791
1.52833E-6	-44.339162
1.528375E-6	-44.332091
1.52842E-6	-44.281748
1.528465E-6	-44.272445
1.52851E-6	-44.271284
1.528555E-6	-44.245812
1.5286E-6	-44.251588
1.528645E-6	-44.217047
1.52869E-6	-44.180503
1.528735E-6	-44.19189
1.52878E-6	-44.188471
1.528825E-6	-44.173686
1.52887E-6	-44.144265
1.528915E-6	-44.149907
1.52896E-6	-44.131877
1.529005E-6	-44.12289
1.52905E-6	-44.154426
1.529095E-6	-44.151037
1.52914E-6	-44.148778
1.529185E-6	-44.137504
1.52923E-6	-44.116162
1.529275E-6	-44.097156
1.52932E-6	-44.124013
1.529365E-6	-44.096041
1.52941E-6	-44.096041
1.529455E-6	-44.067139
1.5295E-6	-44.067139
1.529545E-6	-44.035129
1.52959E-6	-44.078232
1.529635E-6	-44.069356
1.52968E-6	-44.038429
1.529725E-6	-44.042834
1.52977E-6	-44.069356
1.529815E-6	-44.069356
1.52986E-6	-44.08824
1.529905E-6	-44.078232
1.52995E-6	-44.052761
1.529995E-6	-44.073792
1.53004E-6	-44.069356
1.530085E-6	-44.078232
1.53013E-6	-44.073792
1.530175E-6	-44.045038
1.53022E-6	-44.052761
1.530265E-6	-44.029633
1.53031E-6	-44.048346
1.530355E-6	-44.063817
1.5304E-6	-44.068247
1.530445E-6	-44.056074
1.53049E-6	-44.034029
1.530535E-6	-44.06271
1.53058E-6	-44.109445
1.530625E-6	-44.103855
1.53067E-6	-44.096041
1.530715E-6	-44.119525
1.53076E-6	-44.090468
1.530805E-6	-44.108326
1.53085E-6	-44.136378
1.530895E-6	-44.134127
1.53094E-6	-44.131877
1.530985E-6	-44.115042
1.53103E-6	-44.100504
1.531075E-6	-44.130753
1.53112E-6	-44.137504
1.531165E-6	-44.148778
1.53121E-6	-44.151037
1.531255E-6	-44.145393
1.5313E-6	-44.169146
1.531345E-6	-44.189611
1.53139E-6	-44.209027
1.531435E-6	-44.219341
1.53148E-6	-44.218194
1.531525E-6	-44.231981
1.53157E-6	-44.248122
1.531615E-6	-44.278257
1.53166E-6	-44.275931
1.531705E-6	-44.264322
1.53175E-6	-44.27942
1.531795E-6	-44.280584
1.53184E-6	-44.300412
1.531885E-6	-44.32268
1.53193E-6	-44.345064
1.531975E-6	-44.342702
1.53202E-6	-44.340342
1.532065E-6	-44.385408
1.53211E-6	-44.40213
1.532155E-6	-44.418917
1.5322E-6	-44.429743
1.532245E-6	-44.45632
1.53229E-6	-44.497716
1.532335E-6	-44.508741
1.53238E-6	-44.554359
1.532425E-6	-44.541982
1.53247E-6	-44.579219
1.532515E-6	-44.55312
1.53256E-6	-44.589202
1.532605E-6	-44.615519
1.53265E-6	-44.615519
1.532695E-6	-44.635678
1.53274E-6	-44.645793
1.532785E-6	-44.672456
1.53283E-6	-44.686488
1.532875E-6	-44.740487
1.53292E-6	-44.776862
1.532965E-6	-44.796475
1.53301E-6	-44.821446
1.533055E-6	-44.863829
1.5331E-6	-44.897232
1.533145E-6	-44.89455
1.53319E-6	-44.917397
1.533235E-6	-44.952574
1.53328E-6	-44.974363
1.533325E-6	-45.01276
1.53337E-6	-45.019653
1.533415E-6	-45.033471
1.53346E-6	-45.048721
1.533505E-6	-45.089186
1.53355E-6	-45.106041
1.533595E-6	-45.158426
1.53364E-6	-45.201369
1.533685E-6	-45.22011
1.53373E-6	-45.273898
1.533775E-6	-45.292956
1.53382E-6	-45.320961
1.533865E-6	-45.353614
1.53391E-6	-45.388017
1.533955E-6	-45.416644
1.534E-6	-45.442418
1.534045E-6	-45.480601
1.53409E-6	-45.49443
1.534135E-6	-45.529971
1.53418E-6	-45.545515
1.534225E-6	-45.581478
1.53427E-6	-45.58462
1.534315E-6	-45.617742
1.53436E-6	-45.68154
1.534405E-6	-45.721894
1.53445E-6	-45.734887
1.534495E-6	-45.765903
1.53454E-6	-45.830268
1.534585E-6	-45.890541
1.53463E-6	-45.914209
1.534675E-6	-45.931193
1.53472E-6	-45.972229
1.534765E-6	-45.992894
1.53481E-6	-46.036263
1.534855E-6	-46.06074
1.5349E-6	-46.085356
1.534945E-6	-46.11366
1.53499E-6	-46.122543
1.535035E-6	-46.149302
1.53508E-6	-46.201508
1.535125E-6	-46.237881
1.53517E-6	-46.258017
1.535215E-6	-46.294869
1.53526E-6	-46.320853
1.535305E-6	-46.38839
1.53535E-6	-46.451236
1.535395E-6	-46.466609
1.53544E-6	-46.50334
1.535485E-6	-46.511113
1.53553E-6	-46.538427
1.535575E-6	-46.569855
1.53562E-6	-46.625407
1.535665E-6	-46.623411
1.53571E-6	-46.651443
1.535755E-6	-46.639407
1.5358E-6	-46.675615
1.535845E-6	-46.722325
1.53589E-6	-46.767479
1.535935E-6	-46.78816
1.53598E-6	-46.79646
1.536025E-6	-46.821455
1.53607E-6	-46.873996
1.536115E-6	-46.931463
1.53616E-6	-46.955095
1.536205E-6	-46.978856
1.53625E-6	-46.978856
1.536295E-6	-47.022395
1.53634E-6	-47.050931
1.536385E-6	-47.07301
1.53643E-6	-47.108572
1.536475E-6	-47.088532
1.53652E-6	-47.095202
1.536565E-6	-47.113037
1.53661E-6	-47.126462
1.536655E-6	-47.176045
1.5367E-6	-47.187393
1.536745E-6	-47.191941
1.53679E-6	-47.223908
1.536835E-6	-47.256112
1.53688E-6	-47.309543
1.536925E-6	-47.328283
1.53697E-6	-47.373117
1.537015E-6	-47.377863
1.53706E-6	-47.377863
1.537105E-6	-47.404061
1.53715E-6	-47.418418
1.537195E-6	-47.425614
1.53724E-6	-47.430418
1.537285E-6	-47.423214
1.53733E-6	-47.406451
1.537375E-6	-47.444863
1.53742E-6	-47.459355
1.537465E-6	-47.459355
1.53751E-6	-47.469044
1.537555E-6	-47.483618
1.5376E-6	-47.493361
1.537645E-6	-47.554755
1.53769E-6	-47.577071
1.537735E-6	-47.609509
1.53778E-6	-47.582046
1.537825E-6	-47.587026
1.53787E-6	-47.617029
1.537915E-6	-47.612014
1.53796E-6	-47.647241
1.538005E-6	-47.62205
1.53805E-6	-47.602002
1.538095E-6	-47.589518
1.53814E-6	-47.602002
1.538185E-6	-47.627077
1.53823E-6	-47.624563
1.538275E-6	-47.604503
1.53832E-6	-47.619539
1.538365E-6	-47.634627
1.53841E-6	-47.659892
1.538455E-6	-47.672579
1.5385E-6	-47.692957
1.538545E-6	-47.710866
1.53859E-6	-47.677665
1.538635E-6	-47.715996
1.53868E-6	-47.721133
1.538725E-6	-47.700623
1.53877E-6	-47.700623
1.538815E-6	-47.682756
1.53886E-6	-47.659892
1.538905E-6	-47.662426
1.53895E-6	-47.659892
1.538995E-6	-47.670039
1.53904E-6	-47.659892
1.539085E-6	-47.654827
1.53913E-6	-47.662426
1.539175E-6	-47.682756
1.53922E-6	-47.710866
1.539265E-6	-47.698066
1.53931E-6	-47.687854
1.539355E-6	-47.703182
1.5394E-6	-47.700623
1.539445E-6	-47.726276
1.53949E-6	-47.682756
1.539535E-6	-47.698066
1.53958E-6	-47.685304
1.539625E-6	-47.644716
1.53967E-6	-47.637147
1.539715E-6	-47.637147
1.53976E-6	-47.62205
1.539805E-6	-47.607005
1.53985E-6	-47.604503
1.539895E-6	-47.599502
1.53994E-6	-47.619539
1.539985E-6	-47.624563
1.54003E-6	-47.642191
1.540075E-6	-47.659892
1.54012E-6	-47.652297
1.540165E-6	-47.654827
1.54021E-6	-47.672579
1.540255E-6	-47.652297
1.5403E-6	-47.647241
1.540345E-6	-47.62205
1.54039E-6	-47.607005
1.540435E-6	-47.577071
1.54048E-6	-47.549811
1.540525E-6	-47.525177
1.54057E-6	-47.517814
1.540615E-6	-47.512913
1.54066E-6	-47.508016
1.540705E-6	-47.530093
1.54075E-6	-47.522722
1.540795E-6	-47.547342
1.54084E-6	-47.549811
1.540885E-6	-47.549811
1.54093E-6	-47.567139
1.540975E-6	-47.547342
1.54102E-6	-47.552282
1.541065E-6	-47.532553
1.54111E-6	-47.547342
1.541155E-6	-47.4958
1.5412E-6	-47.498241
1.541245E-6	-47.473897
1.54129E-6	-47.461776
1.541335E-6	-47.444863
1.54138E-6	-47.408842
1.541425E-6	-47.420815
1.54147E-6	-47.430418
1.541515E-6	-47.430418
1.54156E-6	-47.423214
1.541605E-6	-47.442452
1.54165E-6	-47.461776
1.541695E-6	-47.452103
1.54174E-6	-47.456937
1.541785E-6	-47.444863
1.54183E-6	-47.452103
1.541875E-6	-47.411234
1.54192E-6	-47.432823
1.541965E-6	-47.420815
1.54201E-6	-47.377863
1.542055E-6	-47.351822
1.5421E-6	-47.349462
1.542145E-6	-47.330631
1.54219E-6	-47.342391
1.542235E-6	-47.351822
1.54228E-6	-47.337683
1.542325E-6	-47.328283
1.54237E-6	-47.337683
1.542415E-6	-47.356545
1.54246E-6	-47.377863
1.542505E-6	-47.394516
1.54255E-6	-47.377863
1.542595E-6	-47.347104
1.54264E-6	-47.358908
1.542685E-6	-47.347104
1.54273E-6	-47.354183
1.542775E-6	-47.325936
1.54282E-6	-47.290884
1.542865E-6	-47.288557
1.54291E-6	-47.253804
1.542955E-6	-47.274622
1.543E-6	-47.283907
1.543045E-6	-47.279262
1.54309E-6	-47.281584
1.543135E-6	-47.274622
1.54318E-6	-47.300203
1.543225E-6	-47.330631
1.54327E-6	-47.344747
1.543315E-6	-47.337683
1.54336E-6	-47.302536
1.543405E-6	-47.32359
1.54345E-6	-47.335331
1.543495E-6	-47.31422
1.54354E-6	-47.32359
1.543585E-6	-47.276942
1.54363E-6	-47.256112
1.543675E-6	-47.244583
1.54372E-6	-47.272304
1.543765E-6	-47.251497
1.54381E-6	-47.265357
1.543855E-6	-47.246886
1.5439E-6	-47.242281
1.543945E-6	-47.269987
1.54399E-6	-47.297871
1.544035E-6	-47.318903
1.54408E-6	-47.330631
1.544125E-6	-47.340036
1.54417E-6	-47.304871
1.544215E-6	-47.330631
1.54426E-6	-47.32359
1.544305E-6	-47.328283
1.54435E-6	-47.307206
1.544395E-6	-47.281584
1.54444E-6	-47.260732
1.544485E-6	-47.256112
1.54453E-6	-47.265357
1.544575E-6	-47.272304
1.54462E-6	-47.249191
1.544665E-6	-47.246886
1.54471E-6	-47.269987
1.544755E-6	-47.309543
1.5448E-6	-47.328283
1.544845E-6	-47.358908
1.54489E-6	-47.340036
1.544935E-6	-47.347104
1.54498E-6	-47.330631
1.545025E-6	-47.349462
1.54507E-6	-47.251497
1.545115E-6	-45.37153
1.54516E-6	-37.375489
1.545205E-6	-32.657604
1.54525E-6	-30.489541
1.545295E-6	-29.982663
1.54534E-6	-29.918258
1.545385E-6	-29.854795
1.54543E-6	-29.892761
1.545475E-6	-30.27057
1.54552E-6	-32.196107
1.545565E-6	-36.790233
1.54561E-6	-43.8122
1.545655E-6	-46.91009
1.5457E-6	-47.297871
1.545745E-6	-47.358908
1.54579E-6	-47.382615
1.545835E-6	-47.401673
1.54588E-6	-47.404061
1.545925E-6	-47.387371
1.54597E-6	-47.375489
1.546015E-6	-47.351822
1.54606E-6	-47.337683
1.546105E-6	-47.354183
1.54615E-6	-47.354183
1.546195E-6	-47.342391
1.54624E-6	-47.349462
1.546285E-6	-47.370745
1.54633E-6	-47.384992
1.546375E-6	-47.420815
1.54642E-6	-47.432823
1.546465E-6	-47.430418
1.54651E-6	-47.444863
1.546555E-6	-47.456937
1.5466E-6	-47.47147
1.546645E-6	-47.473897
1.54669E-6	-47.454519
1.546735E-6	-47.437635
1.54678E-6	-47.430418
1.546825E-6	-47.420815
1.54687E-6	-47.423214
1.546915E-6	-47.413627
1.54696E-6	-47.411234
1.547005E-6	-47.416022
1.54705E-6	-47.428016
1.547095E-6	-47.437635
1.54714E-6	-47.473897
1.547185E-6	-47.481185
1.54723E-6	-47.503126
1.547275E-6	-47.520267
1.54732E-6	-47.515363
1.547365E-6	-47.527635
1.54741E-6	-47.549811
1.547455E-6	-47.515363
1.5475E-6	-47.520267
1.547545E-6	-47.515363
1.54759E-6	-47.500682
1.547635E-6	-47.473897
1.54768E-6	-47.473897
1.547725E-6	-47.469044
1.54777E-6	-47.478754
1.547815E-6	-47.493361
1.54786E-6	-47.488487
1.547905E-6	-47.510464
1.54795E-6	-47.530093
1.547995E-6	-47.542406
1.54804E-6	-47.587026
1.548085E-6	-47.587026
1.54813E-6	-47.602002
1.548175E-6	-47.604503
1.54822E-6	-47.592012
1.548265E-6	-47.589518
1.54831E-6	-47.592012
1.548355E-6	-47.567139
1.5484E-6	-47.552282
1.548445E-6	-47.542406
1.54849E-6	-47.532553
1.548535E-6	-47.532553
1.54858E-6	-47.527635
1.548625E-6	-47.549811
1.54867E-6	-47.557229
1.548715E-6	-47.557229
1.54876E-6	-47.584535
1.548805E-6	-47.602002
1.54885E-6	-47.619539
1.548895E-6	-47.642191
1.54894E-6	-47.649768
1.548985E-6	-47.647241
1.54903E-6	-47.632109
1.549075E-6	-47.617029
1.54912E-6	-47.627077
1.549165E-6	-47.604503
1.54921E-6	-47.582046
1.549255E-6	-47.557229
1.5493E-6	-47.557229
1.549345E-6	-47.574586
1.54939E-6	-47.574586
1.549435E-6	-47.592012
1.54948E-6	-47.589518
1.549525E-6	-47.602002
1.54957E-6	-47.627077
1.549615E-6	-47.652297
1.54966E-6	-47.672579
1.549705E-6	-47.682756
1.54975E-6	-47.675121
1.549795E-6	-47.652297
1.54984E-6	-47.624563
1.549885E-6	-47.368375
1.54993E-6	-42.469534
1.549975E-6	-34.503838
1.55002E-6	-30.932879
1.550065E-6	-29.75925
1.55011E-6	-29.535048
1.550155E-6	-29.542859
1.5502E-6	-29.503944
1.550245E-6	-29.531148
1.55029E-6	-30.271957
1.550335E-6	-33.005959
1.55038E-6	-39.277501
1.550425E-6	-45.932895
1.55047E-6	-47.425614
1.550515E-6	-47.629592
1.55056E-6	-47.672579
1.550605E-6	-47.675121
1.55065E-6	-47.68021
1.550695E-6	-47.68021
1.55074E-6	-47.675121
1.550785E-6	-47.627077
1.55083E-6	-47.607005
1.550875E-6	-47.592012
1.55092E-6	-47.594508
1.550965E-6	-47.604503
1.55101E-6	-47.607005
1.551055E-6	-47.594508
1.5511E-6	-47.594508
1.551145E-6	-47.619539
1.55119E-6	-47.6675
1.551235E-6	-47.677665
1.55128E-6	-47.692957
1.551325E-6	-47.695511
1.55137E-6	-47.677665
1.551415E-6	-47.662426
1.55146E-6	-47.685304
1.551505E-6	-47.68021
1.55155E-6	-47.647241
1.551595E-6	-47.599502
1.55164E-6	-47.604503
1.551685E-6	-47.582046
1.55173E-6	-47.594508
1.551775E-6	-47.597004
1.55182E-6	-47.592012
1.551865E-6	-47.589518
1.55191E-6	-47.582046
1.551955E-6	-47.627077
1.552E-6	-47.6675
1.552045E-6	-47.682756
1.55209E-6	-47.68021
1.552135E-6	-47.6675
1.55218E-6	-47.664962
1.552225E-6	-47.682756
1.55227E-6	-47.690404
1.552315E-6	-47.68021
1.55236E-6	-47.634627
1.552405E-6	-47.587026
1.55245E-6	-47.577071
1.552495E-6	-47.582046
1.55254E-6	-47.594508
1.552585E-6	-47.582046
1.55263E-6	-47.579558
1.552675E-6	-47.574586
1.55272E-6	-47.584535
1.552765E-6	-47.62205
1.55281E-6	-47.664962
1.552855E-6	-47.670039
1.5529E-6	-47.675121
1.552945E-6	-47.662426
1.55299E-6	-47.6675
1.553035E-6	-47.68021
1.55308E-6	-47.672579
1.553125E-6	-47.654827
1.55317E-6	-47.619539
1.553215E-6	-47.592012
1.55326E-6	-47.574586
1.553305E-6	-47.577071
1.55335E-6	-47.572102
1.553395E-6	-47.549811
1.55344E-6	-47.554755
1.553485E-6	-47.567139
1.55353E-6	-47.574586
1.553575E-6	-47.627077
1.55362E-6	-47.652297
1.553665E-6	-47.662426
1.55371E-6	-47.659892
1.553755E-6	-47.659892
1.5538E-6	-47.68021
1.553845E-6	-47.662426
1.55389E-6	-47.654827
1.553935E-6	-47.647241
1.55398E-6	-47.602002
1.554025E-6	-47.579558
1.55407E-6	-47.579558
1.554115E-6	-47.549811
1.55416E-6	-47.549811
1.554205E-6	-47.544873
1.55425E-6	-47.544873
1.554295E-6	-47.562181
1.55434E-6	-47.587026
1.554385E-6	-47.607005
1.55443E-6	-47.637147
1.554475E-6	-47.644716
1.55452E-6	-47.652297
1.554565E-6	-47.644716
1.55461E-6	-47.654827
1.554655E-6	-47.652297
1.5547E-6	-47.639669
1.554745E-6	-47.617029
1.55479E-6	-47.582046
1.554835E-6	-47.572102
1.55488E-6	-47.557229
1.554925E-6	-47.539941
1.55497E-6	-47.544873
1.555015E-6	-47.532553
1.55506E-6	-47.532553
1.555105E-6	-47.537477
1.55515E-6	-47.549811
1.555195E-6	-47.589518
1.55524E-6	-47.619539
1.555285E-6	-47.632109
1.55533E-6	-47.644716
1.555375E-6	-47.657359
1.55542E-6	-47.659892
1.555465E-6	-47.649768
1.55551E-6	-47.624563
1.555555E-6	-47.62205
1.5556E-6	-47.582046
1.555645E-6	-47.557229
1.55569E-6	-47.549811
1.555735E-6	-47.539941
1.55578E-6	-47.532553
1.555825E-6	-47.539941
1.55587E-6	-47.552282
1.555915E-6	-47.542406
1.55596E-6	-47.582046
1.556005E-6	-47.607005
1.55605E-6	-47.639669
1.556095E-6	-47.659892
1.55614E-6	-47.659892
1.556185E-6	-47.664962
1.55623E-6	-47.659892
1.556275E-6	-47.647241
1.55632E-6	-47.657359
1.556365E-6	-47.632109
1.55641E-6	-47.612014
1.556455E-6	-47.572102
1.5565E-6	-47.554755
1.556545E-6	-47.542406
1.55659E-6	-47.549811
1.556635E-6	-47.56962
1.55668E-6	-47.572102
1.556725E-6	-47.564659
1.55677E-6	-47.589518
1.556815E-6	-47.624563
1.55686E-6	-47.6675
1.556905E-6	-47.68021
1.55695E-6	-47.698066
1.556995E-6	-47.695511
1.55704E-6	-47.690404
1.557085E-6	-47.687854
1.55713E-6	-47.703182
1.557175E-6	-47.68021
1.55722E-6	-47.649768
1.557265E-6	-47.602002
1.55731E-6	-47.582046
1.557355E-6	-47.602002
1.5574E-6	-47.617029
1.557445E-6	-47.619539
1.55749E-6	-47.624563
1.557535E-6	-47.62205
1.55758E-6	-47.647241
1.557625E-6	-47.687854
1.55767E-6	-47.74174
1.557715E-6	-47.759852
1.55776E-6	-47.762445
1.557805E-6	-47.767637
1.55785E-6	-47.770236
1.557895E-6	-47.75726
1.55794E-6	-47.78325
1.557985E-6	-47.759852
1.55803E-6	-47.718564
1.558075E-6	-47.690404
1.55812E-6	-47.677665
1.558165E-6	-47.677665
1.55821E-6	-47.690404
1.558255E-6	-47.705742
1.5583E-6	-47.698066
1.558345E-6	-47.715996
1.55839E-6	-47.739159
1.558435E-6	-47.796304
1.55848E-6	-47.851562
1.558525E-6	-47.867479
1.55857E-6	-47.870138
1.558615E-6	-47.862167
1.55866E-6	-47.870138
1.558705E-6	-47.878124
1.55875E-6	-47.891466
1.558795E-6	-47.878124
1.55884E-6	-47.843624
1.558885E-6	-47.809397
1.55893E-6	-47.79369
1.558975E-6	-47.809397
1.55902E-6	-47.830428
1.559065E-6	-47.846268
1.55911E-6	-47.843624
1.559155E-6	-47.85421
1.5592E-6	-47.886124
1.559245E-6	-47.947956
1.55929E-6	-47.999707
1.559335E-6	-48.013429
1.55938E-6	-48.01893
1.559425E-6	-48.024438
1.55947E-6	-48.054857
1.559515E-6	-48.065971
1.55956E-6	-48.065971
1.559605E-6	-48.041003
1.55965E-6	-47.996968
1.559695E-6	-47.986029
1.55974E-6	-47.994231
1.559785E-6	-48.013429
1.55983E-6	-48.029953
1.559875E-6	-48.024438
1.55992E-6	-48.032713
1.559965E-6	-48.052082
1.56001E-6	-48.099486
1.560055E-6	-48.153086
1.5601E-6	-48.195874
1.560145E-6	-48.215987
1.56019E-6	-48.227522
1.560235E-6	-48.233301
1.56028E-6	-48.262312
1.560325E-6	-48.273971
1.56037E-6	-48.285661
1.560415E-6	-48.256494
1.56046E-6	-48.213108
1.560505E-6	-48.213108
1.56055E-6	-48.23041
1.560595E-6	-48.227522
1.56064E-6	-48.239087
1.560685E-6	-48.239087
1.56073E-6	-48.253588
1.560775E-6	-48.279812
1.56082E-6	-48.320922
1.560865E-6	-48.389316
1.56091E-6	-48.425432
1.560955E-6	-48.434508
1.561E-6	-48.45576
1.561045E-6	-48.461851
1.56109E-6	-48.483238
1.561135E-6	-48.51089
1.56118E-6	-48.517059
1.561225E-6	-48.501653
1.56127E-6	-48.467951
1.561315E-6	-48.467951
1.56136E-6	-48.471004
1.561405E-6	-48.495506
1.56145E-6	-48.498578
1.561495E-6	-48.51089
1.56154E-6	-48.529423
1.561585E-6	-48.560489
1.56163E-6	-48.585502
1.561675E-6	-48.632794
1.56172E-6	-48.680607
1.561765E-6	-48.706324
1.56181E-6	-48.728952
1.561855E-6	-48.758219
1.5619E-6	-48.761484
1.561945E-6	-48.790972
1.56199E-6	-48.794261
1.562035E-6	-48.787685
1.56208E-6	-48.758219
1.562125E-6	-48.758219
1.56217E-6	-48.751699
1.562215E-6	-48.761484
1.56226E-6	-48.76475
1.562305E-6	-48.797552
1.56235E-6	-48.790972
1.562395E-6	-48.827287
1.56244E-6	-48.857227
1.562485E-6	-48.910969
1.56253E-6	-48.961963
1.562575E-6	-48.999743
1.56262E-6	-49.006647
1.562665E-6	-49.051796
1.56271E-6	-49.065783
1.562755E-6	-49.058784
1.5628E-6	-49.079815
1.562845E-6	-49.079815
1.56289E-6	-49.086848
1.562935E-6	-49.058784
1.56298E-6	-49.058784
1.563025E-6	-49.062282
1.56307E-6	-49.069287
1.563115E-6	-49.100949
1.56316E-6	-49.136402
1.563205E-6	-49.139963
1.56325E-6	-49.175737
1.563295E-6	-49.222688
1.56334E-6	-49.273825
1.563385E-6	-49.310724
1.56343E-6	-49.329291
1.563475E-6	-49.366666
1.56352E-6	-49.370422
1.563565E-6	-49.389247
1.56361E-6	-49.393022
1.563655E-6	-49.427144
1.5637E-6	-49.3968
1.563745E-6	-49.377942
1.56379E-6	-49.377942
1.563835E-6	-49.389247
1.56388E-6	-49.400581
1.563925E-6	-49.438577
1.56397E-6	-49.450041
1.564015E-6	-49.476909
1.56406E-6	-49.496202
1.564105E-6	-49.554602
1.56415E-6	-49.601894
1.564195E-6	-49.653715
1.56424E-6	-49.669786
1.564285E-6	-49.673812
1.56433E-6	-49.702105
1.564375E-6	-49.714287
1.56442E-6	-49.726504
1.564465E-6	-49.75925
1.56451E-6	-49.742846
1.564555E-6	-49.722428
1.5646E-6	-49.722428
1.564645E-6	-49.730584
1.56469E-6	-49.763361
1.564735E-6	-49.771594
1.56478E-6	-49.800533
1.564825E-6	-49.817157
1.56487E-6	-49.854795
1.564915E-6	-49.892761
1.56496E-6	-49.969705
1.565005E-6	-50
1.56505E-6	-50.038387
1.565095E-6	-50.057269
1.56514E-6	-50.062112
1.565185E-6	-50.071373
1.56523E-6	-50.090842
1.565275E-6	-50.130492
1.56532E-6	-50.120657
1.565365E-6	-50.105947
1.56541E-6	-50.101054
1.565455E-6	-50.110399
1.5655E-6	-50.140349
1.565545E-6	-50.170055
1.56559E-6	-50.200421
1.565635E-6	-50.209983
1.56568E-6	-50.214999
1.565725E-6	-50.24982
1.56577E-6	-50.320778
1.565815E-6	-50.372993
1.56586E-6	-50.40434
1.565905E-6	-50.40434
1.56595E-6	-50.430636
1.565995E-6	-50.441199
1.56604E-6	-50.484197
1.566085E-6	-50.521253
1.56613E-6	-50.505612
1.566175E-6	-50.484197
1.56622E-6	-50.457092
1.566265E-6	-50.489054
1.56631E-6	-50.499761
1.566355E-6	-50.54827
1.5664E-6	-50.554186
1.566445E-6	-50.559617
1.56649E-6	-50.559617
1.566535E-6	-50.625323
1.56658E-6	-50.703257
1.566625E-6	-50.748427
1.56667E-6	-50.76031
1.566715E-6	-50.765487
1.56676E-6	-50.788339
1.566805E-6	-50.828622
1.56685E-6	-50.85181
1.566895E-6	-50.875122
1.56694E-6	-50.86557
1.566985E-6	-50.836513
1.56703E-6	-50.830725
1.567075E-6	-50.853924
1.56712E-6	-50.86557
1.567165E-6	-50.91247
1.56721E-6	-50.936111
1.567255E-6	-50.94852
1.5673E-6	-50.965844
1.567345E-6	-51.019883
1.56739E-6	-51.087414
1.567435E-6	-51.139043
1.56748E-6	-51.15148
1.567525E-6	-51.189008
1.56757E-6	-51.22053
1.567615E-6	-51.27203
1.56766E-6	-51.297717
1.567705E-6	-51.323558
1.56775E-6	-51.330042
1.567795E-6	-51.343039
1.56784E-6	-51.356076
1.567885E-6	-51.415831
1.56793E-6	-51.441781
1.567975E-6	-51.478861
1.56802E-6	-51.526124
1.568065E-6	-51.567049
1.56811E-6	-51.629168
1.568155E-6	-51.72114
1.5682E-6	-51.78552
1.568245E-6	-51.851533
1.56829E-6	-51.911141
1.568335E-6	-51.955879
1.56838E-6	-52.054422
1.568425E-6	-52.112661
1.56847E-6	-52.17599
1.568515E-6	-52.222833
1.56856E-6	-52.337359
1.568605E-6	-52.353756
1.56865E-6	-52.453459
1.568695E-6	-52.504956
1.56874E-6	-52.556288
1.568785E-6	-52.626483
1.56883E-6	-52.724587
1.568875E-6	-52.795926
1.56892E-6	-52.89798
1.568965E-6	-52.955063
1.56901E-6	-53.085648
1.569055E-6	-53.161428
1.5691E-6	-53.231236
1.569145E-6	-53.313346
1.56919E-6	-53.388501
1.569235E-6	-53.488189
1.56928E-6	-53.569423
1.569325E-6	-53.625103
1.56937E-6	-53.681505
1.569415E-6	-53.757179
1.56946E-6	-53.81429
1.569505E-6	-53.879583
1.56955E-6	-53.9545
1.569595E-6	-53.987007
1.56964E-6	-54.047243
1.569685E-6	-54.112802
1.56973E-6	-54.19189
1.569775E-6	-54.256214
1.56982E-6	-54.326207
1.569865E-6	-54.361631
1.56991E-6	-54.427335
1.569955E-6	-54.46967
1.57E-6	-54.532106
