Wavelength (nm)	Power (dBm)
1.525E-6	-120
1.525045E-6	-95.272436
1.52509E-6	-91.710824
1.525135E-6	-98.648673
1.52518E-6	-93.832095
1.525225E-6	-93.044308
1.52527E-6	-120
1.525315E-6	-90.656531
1.52536E-6	-98.884015
1.525405E-6	-120
1.52545E-6	-87.835702
1.525495E-6	-120
1.52554E-6	-97.437635
1.525585E-6	-93.441895
1.52563E-6	-88.431481
1.525675E-6	-87.101882
1.52572E-6	-89.685915
1.525765E-6	-87.602002
1.52581E-6	-87.437635
1.525855E-6	-88.972234
1.5259E-6	-88.344589
1.525945E-6	-92.618539
1.52599E-6	-102.252641
1.526035E-6	-91.043565
1.52608E-6	-120
1.526125E-6	-90.103278
1.52617E-6	-120
1.526215E-6	-89.006647
1.52626E-6	-120
1.526305E-6	-120
1.52635E-6	-86.472388
1.526395E-6	-91.325325
1.52644E-6	-90.684913
1.526485E-6	-120
1.52653E-6	-89.480761
1.526575E-6	-87.10634
1.52662E-6	-89.637705
1.526665E-6	-87.977842
1.52671E-6	-91.725661
1.526755E-6	-88.645493
1.5268E-6	-120
1.526845E-6	-120
1.52689E-6	-88.158766
1.526935E-6	-92.860896
1.52698E-6	-120
1.527025E-6	-105.657505
1.52707E-6	-92.852512
1.527115E-6	-87.088532
1.52716E-6	-87.78325
1.527205E-6	-85.692801
1.52725E-6	-84.273607
1.527295E-6	-86.907958
1.52734E-6	-85.080783
1.527385E-6	-85.511392
1.52743E-6	-87.695511
1.527475E-6	-92.809174
1.52752E-6	-95.810362
1.527565E-6	-94.329736
1.52761E-6	-91.725661
1.527655E-6	-89.434763
1.5277E-6	-89.846402
1.527745E-6	-102.248266
1.52779E-6	-96.40544
1.527835E-6	-90.442161
1.52788E-6	-86.20332
1.527925E-6	-86.039751
1.52797E-6	-89.347939
1.528015E-6	-86.066003
1.52806E-6	-87.10634
1.528105E-6	-87.675121
1.52815E-6	-86.645421
1.528195E-6	-86.657474
1.52824E-6	-88.065971
1.528285E-6	-91.301232
1.52833E-6	-92.986047
1.528375E-6	-86.931463
1.52842E-6	-120
1.528465E-6	-91.779628
1.52851E-6	-120
1.528555E-6	-101.813783
1.5286E-6	-89.157813
1.528645E-6	-93.70081
1.52869E-6	-84.805658
1.528735E-6	-84.36875
1.52878E-6	-85.09199
1.528825E-6	-84.992148
1.52887E-6	-84.464811
1.528915E-6	-83.95342
1.52896E-6	-84.94172
1.529005E-6	-87.044329
1.52905E-6	-93.300326
1.529095E-6	-88.674202
1.52914E-6	-96.708056
1.529185E-6	-92.892059
1.52923E-6	-120
1.529275E-6	-100.260413
1.52932E-6	-120
1.529365E-6	-91.402015
1.52941E-6	-88.651856
1.529455E-6	-88.27689
1.5295E-6	-85.746288
1.529545E-6	-85.071
1.52959E-6	-84.193031
1.529635E-6	-87.654827
1.52968E-6	-85.488278
1.529725E-6	-85.872036
1.52977E-6	-86.838199
1.529815E-6	-87.81202
1.52986E-6	-120
1.529905E-6	-90.795114
1.52995E-6	-90.339052
1.529995E-6	-89.558524
1.53004E-6	-102.638426
1.530085E-6	-90.917295
1.53013E-6	-99.157813
1.530175E-6	-102.474906
1.53022E-6	-87.500682
1.530265E-6	-82.990368
1.53031E-6	-84.525945
1.530355E-6	-84.993519
1.5304E-6	-81.260403
1.530445E-6	-85.043169
1.53049E-6	-84.375882
1.530535E-6	-84.981195
1.53058E-6	-85.795491
1.530625E-6	-90.095723
1.53067E-6	-91.540342
1.530715E-6	-96.216021
1.53076E-6	-103.562513
1.530805E-6	-120
1.53085E-6	-87.90485
1.530895E-6	-89.480761
1.53094E-6	-87.119745
1.530985E-6	-86.603498
1.53103E-6	-85.775743
1.531075E-6	-84.48428
1.53112E-6	-86.315272
1.531165E-6	-86.550186
1.53121E-6	-84.854522
1.531255E-6	-84.139756
1.5313E-6	-85.594057
1.531345E-6	-85.482136
1.53139E-6	-86.878226
1.531435E-6	-120
1.53148E-6	-87.726276
1.531525E-6	-95.70894
1.53157E-6	-90.615303
1.531615E-6	-90.553693
1.53166E-6	-98.683813
1.531705E-6	-120
1.53175E-6	-87.728849
1.531795E-6	-87.057543
1.53184E-6	-84.325031
1.531885E-6	-84.671183
1.53193E-6	-84.277094
1.531975E-6	-84.355707
1.53202E-6	-86.003263
1.532065E-6	-84.240044
1.53211E-6	-84.270123
1.532155E-6	-87.718564
1.5322E-6	-88.810742
1.532245E-6	-120
1.53229E-6	-120
1.532335E-6	-95.128616
1.53238E-6	-120
1.532425E-6	-86.815193
1.53247E-6	-120
1.532515E-6	-89.734667
1.53256E-6	-85.820304
1.532605E-6	-84.532106
1.53265E-6	-83.398938
1.532695E-6	-85.310622
1.53274E-6	-84.027437
1.532785E-6	-85.064026
1.53283E-6	-82.873503
1.532875E-6	-84.436975
1.53292E-6	-85.295895
1.532965E-6	-88.847224
1.53301E-6	-88.523237
1.533055E-6	-120
1.5331E-6	-89.010104
1.533145E-6	-95.110265
1.53319E-6	-85.932895
1.533235E-6	-120
1.53328E-6	-89.812995
1.533325E-6	-86.777807
1.53337E-6	-87.039933
1.533415E-6	-84.792545
1.53346E-6	-84.46967
1.533505E-6	-85.257837
1.53355E-6	-85.059846
1.533595E-6	-83.988095
1.53364E-6	-85.662302
1.533685E-6	-86.920763
1.53373E-6	-89.956786
1.533775E-6	-92.036338
1.53382E-6	-93.667336
1.533865E-6	-120
1.53391E-6	-120
1.533955E-6	-120
1.534E-6	-120
1.534045E-6	-91.5323
1.53409E-6	-91.378686
1.534135E-6	-85.764265
1.53418E-6	-86.591595
1.534225E-6	-85.310622
1.53427E-6	-86.811023
1.534315E-6	-87.380238
1.53436E-6	-84.727569
1.534405E-6	-120
1.53445E-6	-86.258017
1.534495E-6	-89.880069
1.53454E-6	-85.326879
1.534585E-6	-120
1.53463E-6	-90.696114
1.534675E-6	-87.614521
1.53472E-6	-91.517493
1.534765E-6	-120
1.53481E-6	-120
1.534855E-6	-96.865546
1.5349E-6	-87.723704
1.534945E-6	-85.246194
1.53499E-6	-87.004927
1.535035E-6	-86.522798
1.53508E-6	-86.010189
1.535125E-6	-86.371407
1.53517E-6	-88.452718
1.535215E-6	-84.675004
1.53526E-6	-87.662426
1.535305E-6	-89.35542
1.53535E-6	-94.162346
1.535395E-6	-95.352125
1.53544E-6	-93.740705
1.535485E-6	-91.907771
1.53553E-6	-120
1.535575E-6	-96.639407
1.53562E-6	-120
1.535665E-6	-89.108016
1.53571E-6	-85.836924
1.535755E-6	-89.122186
1.5358E-6	-88.306195
1.535845E-6	-86.955095
1.53589E-6	-86.156466
1.535935E-6	-89.519468
1.53598E-6	-84.982563
1.536025E-6	-86.68168
1.53607E-6	-88.356471
1.536115E-6	-87.413627
1.53616E-6	-95.040396
1.536205E-6	-97.500682
1.53625E-6	-120
1.536295E-6	-88.44057
1.53634E-6	-89.858997
1.536385E-6	-87.723704
1.53643E-6	-91.370342
1.536475E-6	-88.951716
1.53652E-6	-93.921163
1.536565E-6	-86.689778
1.53661E-6	-86.823545
1.536655E-6	-86.773673
1.5367E-6	-91.446626
1.536745E-6	-91.007816
1.53679E-6	-85.224447
1.536835E-6	-87.459355
1.53688E-6	-91.824346
1.536925E-6	-90.854982
1.53697E-6	-91.144692
1.537015E-6	-120
1.53706E-6	-92.864255
1.537105E-6	-92.069084
1.53715E-6	-89.219058
1.537195E-6	-92.579823
1.53724E-6	-90.810789
1.537285E-6	-86.552149
1.53733E-6	-87.022395
1.537375E-6	-89.829667
1.53742E-6	-87.018021
1.537465E-6	-92.035644
1.53751E-6	-86.852903
1.537555E-6	-87.321246
1.5376E-6	-86.190655
1.537645E-6	-92.163108
1.53769E-6	-107.983298
1.537735E-6	-104.429743
1.53778E-6	-95.212892
1.537825E-6	-120
1.53787E-6	-90.429677
1.537915E-6	-120
1.53796E-6	-120
1.538005E-6	-105.268051
1.53805E-6	-86.794383
1.538095E-6	-88.761484
1.53814E-6	-89.767475
1.538185E-6	-86.165437
1.53823E-6	-86.165437
1.538275E-6	-89.404366
1.53832E-6	-90.349865
1.538365E-6	-85.018273
1.53841E-6	-86.407338
1.538455E-6	-120
1.5385E-6	-89.359166
1.538545E-6	-95.756084
1.53859E-6	-94.197595
1.538635E-6	-92.15454
1.53868E-6	-88.890738
1.538725E-6	-95.244741
1.53877E-6	-87.675121
1.538815E-6	-89.961088
1.53886E-6	-91.080725
1.538905E-6	-88.244882
1.53895E-6	-85.926091
1.538995E-6	-95.303252
1.53904E-6	-86.165437
1.539085E-6	-89.597934
1.53913E-6	-88.797552
1.539175E-6	-86.196078
1.53922E-6	-87.512913
1.539265E-6	-120
1.53931E-6	-90.984327
1.539355E-6	-94.459957
1.5394E-6	-120
1.539445E-6	-90.692037
1.53949E-6	-93.429441
1.539535E-6	-120
1.53958E-6	-97.416022
1.539625E-6	-86.505282
1.53967E-6	-87.552282
1.539715E-6	-86.972363
1.53976E-6	-86.326441
1.539805E-6	-87.251497
1.53985E-6	-90.244763
1.539895E-6	-86.922901
1.53994E-6	-91.840903
1.539985E-6	-89.685915
1.54003E-6	-88.136088
1.540075E-6	-90.280287
1.54012E-6	-90.339522
1.540165E-6	-89.825493
1.54021E-6	-96.679657
1.540255E-6	-92.024555
1.5403E-6	-120
1.540345E-6	-94.295738
1.54039E-6	-87.9588
1.540435E-6	-90.101943
1.54048E-6	-86.940041
1.540525E-6	-86.823545
1.54057E-6	-85.364056
1.540615E-6	-87.780644
1.54066E-6	-87.015836
1.540705E-6	-86.509168
1.54075E-6	-87.759852
1.540795E-6	-93.5164
1.54084E-6	-94.169146
1.540885E-6	-92.708352
1.54093E-6	-98.992849
1.540975E-6	-120
1.54102E-6	-97.77804
1.541065E-6	-90.757724
1.54111E-6	-83.984832
1.541155E-6	-89.115095
1.5412E-6	-88.860566
1.541245E-6	-87.318903
1.54129E-6	-86.817279
1.541335E-6	-91.103062
1.54138E-6	-85.941416
1.541425E-6	-87.428016
1.54147E-6	-85.965363
1.541515E-6	-88.884015
1.54156E-6	-87.754669
1.541605E-6	-88.604357
1.54165E-6	-93.966391
1.541695E-6	-90.809219
1.54174E-6	-92.626483
1.541785E-6	-89.657727
1.54183E-6	-96.420652
1.541875E-6	-105.231684
1.54192E-6	-87.92635
1.541965E-6	-90.731947
1.54201E-6	-120
1.542055E-6	-87.991495
1.5421E-6	-85.442418
1.542145E-6	-84.795165
1.54219E-6	-87.775437
1.542235E-6	-120
1.54228E-6	-86.792308
1.542325E-6	-87.715996
1.54237E-6	-88.548036
1.542415E-6	-88.699881
1.54246E-6	-89.665762
1.542505E-6	-83.611116
1.54255E-6	-89.446217
1.542595E-6	-89.370422
1.54264E-6	-91.93142
1.542685E-6	-120
1.54273E-6	-102.886146
1.542775E-6	-93.924378
1.54282E-6	-88.576105
1.542865E-6	-86.639407
1.54291E-6	-86.842395
1.542955E-6	-87.347104
1.543E-6	-86.031036
1.543045E-6	-89.24453
1.54309E-6	-86.811023
1.543135E-6	-86.018863
1.54318E-6	-88.777841
1.543225E-6	-120
1.54327E-6	-120
1.543315E-6	-91.089088
1.54336E-6	-120
1.543405E-6	-88.002448
1.54345E-6	-120
1.543495E-6	-120
1.54354E-6	-93.970723
1.543585E-6	-94.257372
1.54363E-6	-85.919297
1.543675E-6	-88.27689
1.54372E-6	-87.2262
1.543765E-6	-86.0206
1.54381E-6	-85.841923
1.543855E-6	-87.983298
1.5439E-6	-84.333269
1.543945E-6	-89.115095
1.54399E-6	-88.890738
1.544035E-6	-89.617774
1.54408E-6	-94.139756
1.544125E-6	-93.715089
1.54417E-6	-91.35845
1.544215E-6	-120
1.54426E-6	-89.767475
1.544305E-6	-91.159414
1.54435E-6	-90.307239
1.544395E-6	-87.46662
1.54444E-6	-85.641556
1.544485E-6	-89.738755
1.54453E-6	-87.251497
1.544575E-6	-85.175552
1.54462E-6	-85.612995
1.544665E-6	-86.518899
1.54471E-6	-87.461776
1.544755E-6	-84.89455
1.5448E-6	-87.557229
1.544845E-6	-120
1.54489E-6	-94.719837
1.544935E-6	-93.29847
1.54498E-6	-120
1.545025E-6	-91.416433
1.54507E-6	-94.705696
1.545115E-6	-75.453076
1.54516E-6	-61.402614
1.545205E-6	-55.329842
1.54525E-6	-52.947351
1.545295E-6	-52.320283
1.54534E-6	-52.208366
1.545385E-6	-52.19035
1.54543E-6	-52.215593
1.545475E-6	-52.554723
1.54552E-6	-54.385408
1.545565E-6	-59.065783
1.54561E-6	-67.302536
1.545655E-6	-76.683703
1.5457E-6	-83.528127
1.545745E-6	-88.300318
1.54579E-6	-88.215987
1.545835E-6	-91.053517
1.54588E-6	-120
1.545925E-6	-91.830962
1.54597E-6	-86.443569
1.546015E-6	-86.483969
1.54606E-6	-87.068585
1.546105E-6	-88.449678
1.54615E-6	-120
1.546195E-6	-85.082182
1.54624E-6	-85.320961
1.546285E-6	-86.806857
1.54633E-6	-83.281794
1.546375E-6	-87.50557
1.54642E-6	-120
1.546465E-6	-120
1.54651E-6	-96.33017
1.546555E-6	-96.154674
1.5466E-6	-90.800855
1.546645E-6	-96.232406
1.54669E-6	-92.891214
1.546735E-6	-91.145257
1.54678E-6	-120
1.546825E-6	-85.262212
1.54687E-6	-85.818645
1.546915E-6	-85.120137
1.54696E-6	-86.794383
1.547005E-6	-88.784402
1.54705E-6	-86.38461
1.547095E-6	-86.916491
1.54714E-6	-87.155693
1.547185E-6	-93.828948
1.54723E-6	-95.240384
1.547275E-6	-94.616777
1.54732E-6	-90.310037
1.547365E-6	-100.769115
1.54741E-6	-120
1.547455E-6	-89.0309
1.5475E-6	-89.065783
1.547545E-6	-120
1.54759E-6	-88.190144
1.547635E-6	-86.311555
1.54768E-6	-85.759355
1.547725E-6	-87.89414
1.54777E-6	-87.384992
1.547815E-6	-85.246194
1.54786E-6	-85.744658
1.547905E-6	-86.163641
1.54795E-6	-89.408154
1.547995E-6	-94.977095
1.54804E-6	-92.09363
1.548085E-6	-96.552149
1.54813E-6	-120
1.548175E-6	-120
1.54822E-6	-90.594835
1.548265E-6	-120
1.54831E-6	-92.04398
1.548355E-6	-107.92635
1.5484E-6	-87.449688
1.548445E-6	-87.256112
1.54849E-6	-87.966951
1.548535E-6	-86.239708
1.54858E-6	-84.05718
1.548625E-6	-84.561802
1.54867E-6	-84.396151
1.548715E-6	-90.4072
1.54876E-6	-85.793842
1.548805E-6	-91.055178
1.54885E-6	-120
1.548895E-6	-89.821323
1.54894E-6	-100.989233
1.548985E-6	-120
1.54903E-6	-89.037854
1.549075E-6	-82.525882
1.54912E-6	-100.812883
1.549165E-6	-91.925326
1.54921E-6	-87.74174
1.549255E-6	-86.825635
1.5493E-6	-87.387371
1.549345E-6	-85.798792
1.54939E-6	-84.45632
1.549435E-6	-86.802695
1.54948E-6	-85.506759
1.549525E-6	-84.867824
1.54957E-6	-94.004444
1.549615E-6	-92.790143
1.54966E-6	-89.154237
1.549705E-6	-89.255493
1.54975E-6	-95.344684
1.549795E-6	-94.36875
1.54984E-6	-86.855008
1.549885E-6	-84.079343
1.54993E-6	-68.068754
1.549975E-6	-57.464197
1.55002E-6	-53.705904
1.550065E-6	-52.343314
1.55011E-6	-52.098556
1.550155E-6	-52.041895
1.5502E-6	-52.050939
1.550245E-6	-52.121146
1.55029E-6	-52.82829
1.550335E-6	-55.57677
1.55038E-6	-61.410419
1.550425E-6	-70.88949
1.55047E-6	-78.431481
1.550515E-6	-84.346245
1.55056E-6	-85.394028
1.550605E-6	-89.649707
1.55065E-6	-88.374356
1.550695E-6	-94.373503
1.55074E-6	-96.806857
1.550785E-6	-87.205612
1.55083E-6	-88.860566
1.550875E-6	-85.539291
1.55092E-6	-86.008457
1.550965E-6	-86.305986
1.55101E-6	-89.442395
1.551055E-6	-86.852903
1.5511E-6	-85.278289
1.551145E-6	-86.655462
1.55119E-6	-91.712757
1.551235E-6	-91.018235
1.55128E-6	-90.781055
1.551325E-6	-95.459177
1.55137E-6	-92.333641
1.551415E-6	-92.672847
1.55146E-6	-103.420841
1.551505E-6	-95.228787
1.55155E-6	-120
1.551595E-6	-90.799811
1.55164E-6	-85.977386
1.551685E-6	-85.652715
1.55173E-6	-86.888822
1.551775E-6	-85.52842
1.55182E-6	-86.779876
1.551865E-6	-84.913356
1.55191E-6	-88.356471
1.551955E-6	-89.779843
1.552E-6	-86.605486
1.552045E-6	-94.086014
1.55209E-6	-90.750491
1.552135E-6	-120
1.55218E-6	-88.359447
1.552225E-6	-120
1.55227E-6	-90.558629
1.552315E-6	-102.324731
1.55236E-6	-88.706324
1.552405E-6	-90.747911
1.55245E-6	-86.458916
1.552495E-6	-86.905828
1.55254E-6	-84.649592
1.552585E-6	-86.790233
1.55263E-6	-87.130946
1.552675E-6	-84.797786
1.55272E-6	-87.002748
1.552765E-6	-86.806857
1.55281E-6	-88.271053
1.552855E-6	-91.38167
1.5529E-6	-86.761294
1.552945E-6	-120
1.55299E-6	-120
1.553035E-6	-97.920965
1.55308E-6	-96.127882
1.553125E-6	-99.566377
1.55317E-6	-92.974833
1.553215E-6	-87.272304
1.55326E-6	-85.649524
1.553305E-6	-87.20105
1.55335E-6	-85.185574
1.553395E-6	-86.546263
1.55344E-6	-84.666093
1.553485E-6	-83.428485
1.55353E-6	-87.454519
1.553575E-6	-86.239708
1.55362E-6	-120
1.553665E-6	-88.576105
1.55371E-6	-95.421181
1.553755E-6	-93.318938
1.5538E-6	-95.471407
1.553845E-6	-120
1.55389E-6	-87.843624
1.553935E-6	-104.882503
1.55398E-6	-86.532559
1.554025E-6	-88.107905
1.55407E-6	-85.089186
1.554115E-6	-85.741399
1.55416E-6	-87.117508
1.554205E-6	-84.655931
1.55425E-6	-86.422557
1.554295E-6	-84.66991
1.55434E-6	-85.16698
1.554385E-6	-87.822529
1.55443E-6	-97.101882
1.554475E-6	-97.454519
1.55452E-6	-90.338583
1.554565E-6	-120
1.55461E-6	-120
1.554655E-6	-120
1.5547E-6	-120
1.554745E-6	-95.537736
1.55479E-6	-89.079815
1.554835E-6	-91.886261
1.55488E-6	-84.87983
1.554925E-6	-87.340036
1.55497E-6	-84.889192
1.555015E-6	-85.741399
1.55506E-6	-86.149302
1.555105E-6	-84.619292
1.55515E-6	-86.214204
1.555195E-6	-88.181564
1.55524E-6	-88.725712
1.555285E-6	-90.426801
1.55533E-6	-120
1.555375E-6	-90.574959
1.55542E-6	-92.230084
1.555465E-6	-120
1.55551E-6	-120
1.555555E-6	-95.73977
1.5556E-6	-89.125735
1.555645E-6	-85.720273
1.55569E-6	-85.331324
1.555735E-6	-88.035475
1.55578E-6	-84.710833
1.555825E-6	-85.480601
1.55587E-6	-87.708303
1.555915E-6	-85.979106
1.55596E-6	-89.419538
1.556005E-6	-92.222108
1.55605E-6	-89.179331
1.556095E-6	-92.66883
1.55614E-6	-88.958544
1.556185E-6	-90.925349
1.55623E-6	-91.759393
1.556275E-6	-120
1.55632E-6	-89.229957
1.556365E-6	-120
1.55641E-6	-87.915586
1.556455E-6	-84.814861
1.5565E-6	-88.738686
1.556545E-6	-84.668637
1.55659E-6	-87.942545
1.556635E-6	-86.289321
1.55668E-6	-85.312097
1.556725E-6	-87.838341
1.55677E-6	-95.943122
1.556815E-6	-88.41336
1.55686E-6	-120
1.556905E-6	-82.867615
1.55695E-6	-86.972363
1.556995E-6	-109.629721
1.55704E-6	-120
1.557085E-6	-90.453716
1.55713E-6	-120
1.557175E-6	-120
1.55722E-6	-86.183435
1.557265E-6	-88.761484
1.55731E-6	-85.117314
1.557355E-6	-84.53334
1.5574E-6	-84.748256
1.557445E-6	-85.272436
1.55749E-6	-88.088285
1.557535E-6	-85.139948
1.55758E-6	-90.331546
1.557625E-6	-90.151128
1.55767E-6	-89.714287
1.557715E-6	-99.710223
1.55776E-6	-89.442395
1.557805E-6	-120
1.55785E-6	-89.531148
1.557895E-6	-88.996295
1.55794E-6	-91.221681
1.557985E-6	-95.603516
1.55803E-6	-86.863437
1.558075E-6	-86.583677
1.55812E-6	-85.318004
1.558165E-6	-84.925489
1.55821E-6	-84.267802
1.558255E-6	-85.01276
1.5583E-6	-85.590909
1.558345E-6	-84.621809
1.55839E-6	-85.205687
1.558435E-6	-86.443569
1.55848E-6	-89.550685
1.558525E-6	-93.391345
1.55857E-6	-89.854795
1.558615E-6	-88.431481
1.55866E-6	-111.161115
1.558705E-6	-120
1.55875E-6	-88.989406
1.558795E-6	-91.688344
1.55884E-6	-87.765041
1.558885E-6	-85.643149
1.55893E-6	-87.057543
1.558975E-6	-87.137681
1.55902E-6	-85.388017
1.559065E-6	-85.757719
1.55911E-6	-85.093393
1.559155E-6	-86.633402
1.5592E-6	-85.062632
1.559245E-6	-85.437858
1.55929E-6	-92.498775
1.559335E-6	-120
1.55938E-6	-96.695862
1.559425E-6	-90.673741
1.55947E-6	-120
1.559515E-6	-120
1.55956E-6	-120
1.559605E-6	-120
1.55965E-6	-83.570411
1.559695E-6	-84.901257
1.55974E-6	-85.032087
1.559785E-6	-87.075224
1.55983E-6	-85.75445
1.559875E-6	-85.836924
1.55992E-6	-84.763836
1.559965E-6	-87.126462
1.56001E-6	-87.203331
1.560055E-6	-90.520764
1.5601E-6	-88.632794
1.560145E-6	-93.688607
1.56019E-6	-89.590023
1.560235E-6	-120
1.56028E-6	-101.558958
1.560325E-6	-89.273825
1.56037E-6	-120
1.560415E-6	-89.800533
1.56046E-6	-87.302536
1.560505E-6	-86.305986
1.56055E-6	-87.662426
1.560595E-6	-87.384992
1.56064E-6	-84.766438
1.560685E-6	-86.518899
1.56073E-6	-85.68154
1.560775E-6	-87.272304
1.56082E-6	-87.048729
1.560865E-6	-89.093893
1.56091E-6	-88.790972
1.560955E-6	-89.08333
1.561E-6	-120
1.561045E-6	-120
1.56109E-6	-120
1.561135E-6	-100.585383
1.56118E-6	-91.159414
1.561225E-6	-120
1.56127E-6	-120
1.561315E-6	-88.431481
1.56136E-6	-86.581699
1.561405E-6	-84.440596
1.56145E-6	-85.919297
1.561495E-6	-89.3968
1.56154E-6	-86.68168
1.561585E-6	-87.263044
1.56163E-6	-86.821455
1.561675E-6	-90.138107
1.56172E-6	-89.266483
1.561765E-6	-102.053726
1.56181E-6	-90.172766
1.561855E-6	-99.28118
1.5619E-6	-87.416022
1.561945E-6	-91.161115
1.56199E-6	-120
1.562035E-6	-94.414114
1.56208E-6	-88.598063
1.562125E-6	-87.110804
1.56217E-6	-86.394066
1.562215E-6	-89.370422
1.56226E-6	-86.050233
1.562305E-6	-86.176227
1.56235E-6	-86.13501
1.562395E-6	-88.979095
1.56244E-6	-85.471407
1.562485E-6	-85.951663
1.56253E-6	-95.087784
1.562575E-6	-91.947711
1.56262E-6	-120
1.562665E-6	-92.614573
1.56271E-6	-93.111354
1.562755E-6	-120
1.5628E-6	-89.161392
1.562845E-6	-90.574959
1.56289E-6	-86.742791
1.562935E-6	-86.375175
1.56298E-6	-88.651856
1.563025E-6	-90.316572
1.56307E-6	-86.691805
1.563115E-6	-91.339491
1.56316E-6	-85.169836
1.563205E-6	-86.88458
1.56325E-6	-84.146521
1.563295E-6	-85.855281
1.56334E-6	-92.41997
1.563385E-6	-89.649707
1.56343E-6	-120
1.563475E-6	-92.520447
1.56352E-6	-120
1.563565E-6	-120
1.56361E-6	-97.162466
1.563655E-6	-94.514877
1.5637E-6	-120
1.563745E-6	-87.969671
1.56379E-6	-88.247782
1.563835E-6	-84.929541
1.56388E-6	-87.269987
1.563925E-6	-86.882461
1.56397E-6	-87.23768
1.564015E-6	-91.932097
1.56406E-6	-89.017025
1.564105E-6	-88.904215
1.56415E-6	-87.396901
1.564195E-6	-89.450041
1.56424E-6	-120
1.564285E-6	-95.587763
1.56433E-6	-90.119764
1.564375E-6	-120
1.56442E-6	-120
1.564465E-6	-87.920965
1.56451E-6	-98.038238
1.564555E-6	-88.190144
1.5646E-6	-87.124222
1.564645E-6	-120
1.56469E-6	-89.871628
1.564735E-6	-87.026773
1.56478E-6	-89.090369
1.564825E-6	-87.996968
1.56487E-6	-90.449861
1.564915E-6	-86.79646
1.56496E-6	-86.371407
1.565005E-6	-89.090369
1.56505E-6	-91.594548
1.565095E-6	-120
1.56514E-6	-87.872798
1.565185E-6	-91.266794
1.56523E-6	-92.946495
1.565275E-6	-120
1.56532E-6	-89.446217
1.565365E-6	-120
1.56541E-6	-95.477534
1.565455E-6	-91.443597
1.5655E-6	-87.363639
1.565545E-6	-88.92112
1.56559E-6	-87.418418
1.565635E-6	-85.125788
1.56568E-6	-86.333903
1.565725E-6	-88.972234
1.56577E-6	-89.931063
1.565815E-6	-90.317506
1.56586E-6	-90.816551
1.565905E-6	-96.90157
1.56595E-6	-93.811155
1.565995E-6	-96.950788
1.56604E-6	-89.657727
1.566085E-6	-86.563945
1.56613E-6	-120
1.566175E-6	-93.950184
1.56622E-6	-91.005078
1.566265E-6	-87.088532
1.56631E-6	-88.680607
1.566355E-6	-95.687971
1.5664E-6	-89.673812
1.566445E-6	-100.845474
1.56649E-6	-120
1.566535E-6	-93.653212
1.56658E-6	-89.629721
1.566625E-6	-92.26433
1.56667E-6	-90.533022
1.566715E-6	-93.152444
1.56676E-6	-90.024826
1.566805E-6	-96.653452
1.56685E-6	-89.54677
1.566895E-6	-88.728952
1.56694E-6	-88.353498
1.566985E-6	-120
1.56703E-6	-89.601894
1.567075E-6	-88.535619
1.56712E-6	-90.329203
1.567165E-6	-120
1.56721E-6	-120
1.567255E-6	-87.281584
1.5673E-6	-94.650859
1.567345E-6	-92.98432
1.56739E-6	-120
1.567435E-6	-99.952488
1.56748E-6	-93.193926
1.567525E-6	-108.127614
1.56757E-6	-120
1.567615E-6	-95.275361
1.56766E-6	-88.948306
1.567705E-6	-90.37678
1.56775E-6	-101.806535
1.567795E-6	-89.991323
1.56784E-6	-96.225116
1.567885E-6	-88.116341
1.56793E-6	-81.307096
1.567975E-6	-87.356545
1.56802E-6	-91.53601
1.568065E-6	-92.219935
1.56811E-6	-89.702105
1.568155E-6	-90.629839
1.5682E-6	-88.745187
1.568245E-6	-87.594508
1.56829E-6	-97.544873
1.568335E-6	-89.325572
1.56838E-6	-92.466468
1.568425E-6	-90.917295
1.56847E-6	-94.329736
1.568515E-6	-92.479516
1.56856E-6	-120
1.568605E-6	-120
1.56865E-6	-91.45087
1.568695E-6	-93.494982
1.56874E-6	-88.052082
1.568785E-6	-92.121854
1.56883E-6	-92.590061
1.568875E-6	-90.363066
1.56892E-6	-87.512913
1.568965E-6	-89.006647
1.56901E-6	-87.47147
1.569055E-6	-89.535048
1.5691E-6	-94.139756
1.569145E-6	-89.681877
1.56919E-6	-120
1.569235E-6	-93.359224
1.56928E-6	-91.061273
1.569325E-6	-120
1.56937E-6	-93.28642
1.569415E-6	-92.840802
1.56946E-6	-93.782008
1.569505E-6	-92.361978
1.56955E-6	-90.929113
1.569595E-6	-120
1.56964E-6	-120
1.569685E-6	-88.175853
1.56973E-6	-91.057393
1.569775E-6	-87.830428
1.56982E-6	-96.252517
1.569865E-6	-86.127882
1.56991E-6	-96.482037
1.569955E-6	-90
1.57E-6	-95.885487
