Wavelength (nm)	Power (dBm)
1.525E-6	-78.144578
1.525045E-6	-77.517814
1.52509E-6	-78.431481
1.525135E-6	-79.875846
1.52518E-6	-83.802807
1.525225E-6	-93.52617
1.52527E-6	-89.215432
1.525315E-6	-97.804155
1.52536E-6	-98.323873
1.525405E-6	-89.062282
1.52545E-6	-87.059749
1.525495E-6	-84.170281
1.52554E-6	-79.775716
1.525585E-6	-78.013429
1.52563E-6	-76.720284
1.525675E-6	-76.742791
1.52572E-6	-75.924392
1.525765E-6	-75.926091
1.52581E-6	-76.225116
1.525855E-6	-76.378947
1.5259E-6	-78.356471
1.525945E-6	-80.53646
1.52599E-6	-85.795491
1.526035E-6	-89.738755
1.52608E-6	-91.852199
1.526125E-6	-90.386264
1.52617E-6	-92.08871
1.526215E-6	-120
1.52626E-6	-84.739193
1.526305E-6	-78.91435
1.52635E-6	-76.174427
1.526395E-6	-75.270973
1.52644E-6	-75.292956
1.526485E-6	-75.218666
1.52653E-6	-74.907975
1.526575E-6	-74.633153
1.52662E-6	-74.925489
1.526665E-6	-76.380834
1.52671E-6	-79.193735
1.526755E-6	-83.477537
1.5268E-6	-95.987718
1.526845E-6	-91.005078
1.52689E-6	-93.463052
1.526935E-6	-89.800533
1.52698E-6	-89.226321
1.527025E-6	-85.459177
1.52707E-6	-78.535619
1.527115E-6	-75.254924
1.52716E-6	-73.994627
1.527205E-6	-73.716111
1.52725E-6	-73.603143
1.527295E-6	-73.696738
1.52734E-6	-73.741733
1.527385E-6	-73.712025
1.52743E-6	-74.672456
1.527475E-6	-76.974526
1.52752E-6	-80.846529
1.527565E-6	-88.880657
1.52761E-6	-103.179452
1.527655E-6	-92.412395
1.5277E-6	-88.751699
1.527745E-6	-120
1.52779E-6	-86.411138
1.527835E-6	-79.147094
1.52788E-6	-74.398542
1.527925E-6	-73.46884
1.52797E-6	-72.876871
1.528015E-6	-72.607442
1.52806E-6	-72.865935
1.528105E-6	-72.675258
1.52815E-6	-72.714028
1.528195E-6	-73.15963
1.52824E-6	-75.25638
1.528285E-6	-78.807441
1.52833E-6	-83.223018
1.528375E-6	-90.642409
1.52842E-6	-93.2468
1.528465E-6	-91.228015
1.52851E-6	-120
1.528555E-6	-87.173779
1.5286E-6	-80.365427
1.528645E-6	-74.698003
1.52869E-6	-72.848326
1.528735E-6	-72.300322
1.52878E-6	-72.006595
1.528825E-6	-72.029403
1.52887E-6	-72.023171
1.528915E-6	-71.985963
1.52896E-6	-72.343314
1.529005E-6	-73.692671
1.52905E-6	-77.404061
1.529095E-6	-81.571412
1.52914E-6	-85.678327
1.529185E-6	-90.388163
1.52923E-6	-120
1.529275E-6	-93.29105
1.52932E-6	-120
1.529365E-6	-81.47703
1.52941E-6	-75.537736
1.529455E-6	-72.870979
1.5295E-6	-71.79142
1.529545E-6	-71.71469
1.52959E-6	-71.619069
1.529635E-6	-71.44905
1.52968E-6	-71.467887
1.529725E-6	-71.639925
1.52977E-6	-72.678476
1.529815E-6	-75.198493
1.52986E-6	-79.0309
1.529905E-6	-84.964817
1.52995E-6	-91.69668
1.529995E-6	-86.671577
1.53004E-6	-93.454384
1.530085E-6	-88.365404
1.53013E-6	-84.245812
1.530175E-6	-76.256183
1.53022E-6	-72.815814
1.530265E-6	-71.615287
1.53031E-6	-71.242444
1.530355E-6	-71.27203
1.5304E-6	-71.041356
1.530445E-6	-71.178171
1.53049E-6	-71.031432
1.530535E-6	-71.886261
1.53058E-6	-73.89979
1.530625E-6	-78.557372
1.53067E-6	-83.190303
1.530715E-6	-85.103227
1.53076E-6	-87.527635
1.530805E-6	-89.788107
1.53085E-6	-120
1.530895E-6	-86.7305
1.53094E-6	-79.503944
1.530985E-6	-73.782008
1.53103E-6	-71.649439
1.531075E-6	-71.16225
1.53112E-6	-71.11652
1.531165E-6	-71.001795
1.53121E-6	-70.842309
1.531255E-6	-71.02923
1.5313E-6	-71.270284
1.531345E-6	-72.635238
1.53139E-6	-75.612995
1.531435E-6	-80.565055
1.53148E-6	-85.171264
1.531525E-6	-106.172627
1.53157E-6	-92.262136
1.531615E-6	-92.189631
1.53166E-6	-95.377518
1.531705E-6	-81.781591
1.53175E-6	-74.92684
1.531795E-6	-72.257751
1.53184E-6	-71.283103
1.531885E-6	-71.158279
1.53193E-6	-71.060164
1.531975E-6	-70.934495
1.53202E-6	-71.003436
1.532065E-6	-71.162818
1.53211E-6	-71.936843
1.532155E-6	-74.476969
1.5322E-6	-79.333014
1.532245E-6	-87.347104
1.53229E-6	-84.977095
1.532335E-6	-89.965395
1.53238E-6	-99.139963
1.532425E-6	-88.674202
1.53247E-6	-89.058784
1.532515E-6	-78.501653
1.53256E-6	-73.098039
1.532605E-6	-71.552123
1.53265E-6	-71.20732
1.532695E-6	-71.122702
1.53274E-6	-71.044117
1.532785E-6	-71.119329
1.53283E-6	-71.270284
1.532875E-6	-71.738604
1.53292E-6	-73.318938
1.532965E-6	-77.614521
1.53301E-6	-81.746388
1.533055E-6	-86.817279
1.5331E-6	-120
1.533145E-6	-101.26505
1.53319E-6	-91.602078
1.533235E-6	-91.216506
1.53328E-6	-80.848113
1.533325E-6	-74.712118
1.53337E-6	-72.265061
1.533415E-6	-71.720495
1.53346E-6	-71.588909
1.533505E-6	-71.598312
1.53355E-6	-71.669805
1.533595E-6	-71.625378
1.53364E-6	-71.936165
1.533685E-6	-72.993828
1.53373E-6	-75.818645
1.533775E-6	-79.901244
1.53382E-6	-87.33298
1.533865E-6	-120
1.53391E-6	-87.74174
1.533955E-6	-92.474138
1.534E-6	-92.706732
1.534045E-6	-84.332091
1.53409E-6	-77.000571
1.534135E-6	-73.87428
1.53418E-6	-72.520447
1.534225E-6	-72.429838
1.53427E-6	-72.196827
1.534315E-6	-72.276783
1.53436E-6	-72.306965
1.534405E-6	-72.422245
1.53445E-6	-72.896287
1.534495E-6	-75.221555
1.53454E-6	-79.200955
1.534585E-6	-84.355707
1.53463E-6	-120
1.534675E-6	-88.722475
1.53472E-6	-97.189666
1.534765E-6	-90.319843
1.53481E-6	-97.619539
1.534855E-6	-80.690001
1.5349E-6	-75.614577
1.534945E-6	-73.708963
1.53499E-6	-72.855026
1.535035E-6	-72.988639
1.53508E-6	-72.999023
1.535125E-6	-72.973972
1.53517E-6	-73.022477
1.535215E-6	-73.224843
1.53526E-6	-74.432152
1.535305E-6	-77.373117
1.53535E-6	-81.717269
1.535395E-6	-89.771594
1.53544E-6	-86.865546
1.535485E-6	-120
1.53553E-6	-94.416515
1.535575E-6	-90.965844
1.53562E-6	-85.358086
1.535665E-6	-78.569852
1.53571E-6	-74.575481
1.535755E-6	-73.870043
1.5358E-6	-73.529106
1.535845E-6	-73.742761
1.53589E-6	-73.793435
1.535935E-6	-73.819519
1.53598E-6	-74.045038
1.536025E-6	-74.27942
1.53607E-6	-76.746896
1.536115E-6	-79.613798
1.53616E-6	-85.407583
1.536205E-6	-87.801536
1.53625E-6	-120
1.536295E-6	-120
1.53634E-6	-89.147094
1.536385E-6	-89.550685
1.53643E-6	-82.051635
1.536475E-6	-77.153437
1.53652E-6	-74.822764
1.536565E-6	-74.051656
1.53661E-6	-74.288737
1.536655E-6	-74.119525
1.5367E-6	-74.182778
1.536745E-6	-74.278257
1.53679E-6	-74.518564
1.536835E-6	-75.946536
1.53688E-6	-78.996295
1.536925E-6	-82.545348
1.53697E-6	-86.659486
1.537015E-6	-89.931063
1.53706E-6	-120
1.537105E-6	-88.032713
1.53715E-6	-92.555505
1.537195E-6	-85.027938
1.53724E-6	-79.763361
1.537285E-6	-76.03452
1.53733E-6	-74.715976
1.537375E-6	-74.519793
1.53742E-6	-74.340342
1.537465E-6	-74.701848
1.53751E-6	-74.496493
1.537555E-6	-74.662279
1.5376E-6	-75.601938
1.537645E-6	-77.000571
1.53769E-6	-79.742846
1.537735E-6	-85.707323
1.53778E-6	-89.931063
1.537825E-6	-91.778319
1.53787E-6	-87.037737
1.537915E-6	-91.590788
1.53796E-6	-97.564659
1.538005E-6	-84.258529
1.53805E-6	-78.50473
1.538095E-6	-75.416644
1.53814E-6	-74.87449
1.538185E-6	-74.94172
1.53823E-6	-74.855851
1.538275E-6	-74.518564
1.53832E-6	-74.680104
1.538365E-6	-74.994891
1.53841E-6	-76.038007
1.538455E-6	-78.748442
1.5385E-6	-82.702684
1.538545E-6	-86.219657
1.53859E-6	-91.990768
1.538635E-6	-89.266483
1.53868E-6	-89.168559
1.538725E-6	-94.613006
1.53877E-6	-85.076587
1.538815E-6	-80.641905
1.53886E-6	-76.267201
1.538905E-6	-75.041782
1.53895E-6	-74.791236
1.538995E-6	-74.748256
1.53904E-6	-74.721124
1.539085E-6	-74.981195
1.53913E-6	-74.652126
1.539175E-6	-75.370034
1.53922E-6	-76.871882
1.539265E-6	-79.538952
1.53931E-6	-84.599209
1.539355E-6	-87.788467
1.5394E-6	-89.262816
1.539445E-6	-94.396151
1.53949E-6	-91.048538
1.539535E-6	-86.460838
1.53958E-6	-84.007721
1.539625E-6	-78.116341
1.53967E-6	-75.460704
1.539715E-6	-74.717262
1.53976E-6	-74.507514
1.539805E-6	-74.589202
1.53985E-6	-74.481842
1.539895E-6	-74.240044
1.53994E-6	-74.650859
1.539985E-6	-75.434821
1.54003E-6	-78.398317
1.540075E-6	-81.878892
1.54012E-6	-87.144427
1.540165E-6	-90.216825
1.54021E-6	-93.583276
1.540255E-6	-89.069287
1.5403E-6	-88.884015
1.540345E-6	-85.870357
1.54039E-6	-80.465303
1.540435E-6	-76.048484
1.54048E-6	-74.846561
1.540525E-6	-74.481842
1.54057E-6	-74.336804
1.540615E-6	-74.332091
1.54066E-6	-74.366376
1.540705E-6	-74.257372
1.54075E-6	-74.607984
1.540795E-6	-76.192462
1.54084E-6	-79.457701
1.540885E-6	-82.872661
1.54093E-6	-87.351822
1.540975E-6	-92.622509
1.54102E-6	-90.702746
1.541065E-6	-85.673513
1.54111E-6	-88.941493
1.541155E-6	-84.171415
1.5412E-6	-78.268137
1.541245E-6	-75.065419
1.54129E-6	-74.078232
1.541335E-6	-73.865811
1.54138E-6	-73.895528
1.541425E-6	-73.863696
1.54147E-6	-74.134127
1.541515E-6	-74.136378
1.54156E-6	-74.563044
1.541605E-6	-76.991872
1.54165E-6	-80.481284
1.541695E-6	-85.218666
1.54174E-6	-92.151688
1.541785E-6	-120
1.54183E-6	-96.048484
1.541875E-6	-88.37137
1.54192E-6	-93.882767
1.541965E-6	-81.404414
1.54201E-6	-75.958508
1.542055E-6	-74.377071
1.5421E-6	-73.813245
1.542145E-6	-73.797598
1.54219E-6	-73.599163
1.542235E-6	-73.9545
1.54228E-6	-73.59618
1.542325E-6	-73.912601
1.54237E-6	-75.026556
1.542415E-6	-78.297383
1.54246E-6	-82.582183
1.542505E-6	-85.89729
1.54255E-6	-89.197344
1.542595E-6	-88.968807
1.54264E-6	-91.348368
1.542685E-6	-85.578339
1.54273E-6	-83.927595
1.542775E-6	-78.884015
1.54282E-6	-75.201369
1.542865E-6	-73.837346
1.54291E-6	-73.454384
1.542955E-6	-73.37431
1.543E-6	-73.558569
1.543045E-6	-73.608124
1.54309E-6	-73.569423
1.543135E-6	-74.082678
1.54318E-6	-75.533075
1.543225E-6	-79.28118
1.54327E-6	-120
1.543315E-6	-85.692801
1.54336E-6	-87.734001
1.543405E-6	-92.632052
1.54345E-6	-91.888273
1.543495E-6	-87.809397
1.54354E-6	-83.549709
1.543585E-6	-76.563945
1.54363E-6	-74.440596
1.543675E-6	-73.644157
1.54372E-6	-73.46884
1.543765E-6	-73.230322
1.54381E-6	-73.407495
1.543855E-6	-73.429441
1.5439E-6	-73.355461
1.543945E-6	-74.464811
1.54399E-6	-77.432823
1.544035E-6	-81.234935
1.54408E-6	-86.466609
1.544125E-6	-98.985966
1.54417E-6	-88.771291
1.544215E-6	-104.930893
1.54426E-6	-88.467951
1.544305E-6	-88.16161
1.54435E-6	-81.042461
1.544395E-6	-75.736514
1.54444E-6	-73.952341
1.544485E-6	-73.578324
1.54453E-6	-73.213906
1.544575E-6	-73.438059
1.54462E-6	-73.382819
1.544665E-6	-73.111354
1.54471E-6	-73.514448
1.544755E-6	-74.806972
1.5448E-6	-77.508016
1.544845E-6	-82.097148
1.54489E-6	-85.833595
1.544935E-6	-85.91082
1.54498E-6	-85.668705
1.545025E-6	-81.092996
1.54507E-6	-73.200273
1.545115E-6	-59.93534
1.54516E-6	-46.765416
1.545205E-6	-40.592843
1.54525E-6	-38.645493
1.545295E-6	-38.213108
1.54534E-6	-38.175853
1.545385E-6	-38.110715
1.54543E-6	-38.116341
1.545475E-6	-38.607508
1.54552E-6	-40.819172
1.545565E-6	-46.095948
1.54561E-6	-55.723516
1.545655E-6	-64.458744
1.5457E-6	-71.78683
1.545745E-6	-77.9588
1.54579E-6	-82.064191
1.545835E-6	-84.569258
1.54588E-6	-84.91605
1.545925E-6	-83.136319
1.54597E-6	-76.661499
1.546015E-6	-73.885954
1.54606E-6	-73.371478
1.546105E-6	-73.142583
1.54615E-6	-73.05044
1.546195E-6	-73.031196
1.54624E-6	-73.316141
1.546285E-6	-73.327339
1.54633E-6	-74.019759
1.546375E-6	-76.786087
1.54642E-6	-80.139004
1.546465E-6	-86.544302
1.54651E-6	-87.018021
1.546555E-6	-120
1.5466E-6	-88.804142
1.546645E-6	-90.07977
1.54669E-6	-87.031155
1.546735E-6	-81.111468
1.54678E-6	-75.606673
1.546825E-6	-73.898724
1.54687E-6	-73.382819
1.546915E-6	-73.173135
1.54696E-6	-72.970528
1.547005E-6	-73.092725
1.54705E-6	-73.104248
1.547095E-6	-73.330143
1.54714E-6	-74.639468
1.547185E-6	-77.931741
1.54723E-6	-80.915686
1.547275E-6	-87.347104
1.54732E-6	-90.985962
1.547365E-6	-91.974315
1.54741E-6	-120
1.547455E-6	-91.894315
1.5475E-6	-86.409238
1.547545E-6	-79.118639
1.54759E-6	-75.080783
1.547635E-6	-73.377145
1.54768E-6	-73.052194
1.547725E-6	-73.166827
1.54777E-6	-73.016384
1.547815E-6	-73.184874
1.54786E-6	-73.279021
1.547905E-6	-73.541849
1.54795E-6	-74.886515
1.547995E-6	-78.51089
1.54804E-6	-82.881085
1.548085E-6	-87.612014
1.54813E-6	-91.494763
1.548175E-6	-90.510005
1.54822E-6	-93.148855
1.548265E-6	-93.00249
1.54831E-6	-85.683147
1.548355E-6	-78.341624
1.5484E-6	-74.592952
1.548445E-6	-73.556599
1.54849E-6	-73.096267
1.548535E-6	-72.991233
1.54858E-6	-73.036436
1.548625E-6	-73.060973
1.54867E-6	-73.15963
1.548715E-6	-73.578324
1.54876E-6	-75.605094
1.548805E-6	-78.91435
1.54885E-6	-85.355105
1.548895E-6	-87.223908
1.54894E-6	-93.565473
1.548985E-6	-97.377863
1.54903E-6	-96.695862
1.549075E-6	-91.548399
1.54912E-6	-120
1.549165E-6	-76.447401
1.54921E-6	-73.950184
1.549255E-6	-73.256901
1.5493E-6	-73.071531
1.549345E-6	-73.018995
1.54939E-6	-73.176744
1.549435E-6	-72.529768
1.54948E-6	-73.142583
1.549525E-6	-73.691655
1.54957E-6	-75.89729
1.549615E-6	-79.488475
1.54966E-6	-84.626847
1.549705E-6	-86.757175
1.54975E-6	-84.740487
1.549795E-6	-83.722246
1.54984E-6	-78.265224
1.549885E-6	-69.0309
1.54993E-6	-52.212701
1.549975E-6	-42.612194
1.55002E-6	-39.233596
1.550065E-6	-38.204482
1.55011E-6	-37.999707
1.550155E-6	-38.007935
1.5502E-6	-37.988761
1.550245E-6	-38.052082
1.55029E-6	-38.951716
1.550335E-6	-42.02594
1.55038E-6	-48.790972
1.550425E-6	-60.235125
1.55047E-6	-67.961515
1.550515E-6	-74.170281
1.55056E-6	-79.408154
1.550605E-6	-84.534573
1.55065E-6	-85.545515
1.550695E-6	-84.293403
1.55074E-6	-80.34328
1.550785E-6	-75.499049
1.55083E-6	-73.522259
1.550875E-6	-73.222106
1.55092E-6	-73.053071
1.550965E-6	-72.788492
1.55101E-6	-73.212086
1.551055E-6	-73.051317
1.5511E-6	-73.224843
1.551145E-6	-74.444219
1.55119E-6	-77.288557
1.551235E-6	-81.552744
1.55128E-6	-86.276404
1.551325E-6	-89.531148
1.55137E-6	-85.154155
1.551415E-6	-120
1.55146E-6	-88.362425
1.551505E-6	-84.782084
1.55155E-6	-79.30702
1.551595E-6	-74.584208
1.55164E-6	-73.266104
1.551685E-6	-72.80503
1.55173E-6	-72.810004
1.551775E-6	-72.843309
1.55182E-6	-72.68653
1.551865E-6	-72.732728
1.55191E-6	-72.956779
1.551955E-6	-74.808285
1.552E-6	-78.007935
1.552045E-6	-82.493374
1.55209E-6	-86.160052
1.552135E-6	-120
1.55218E-6	-89.366666
1.552225E-6	-97.609509
1.55227E-6	-120
1.552315E-6	-85.379016
1.55236E-6	-78.288588
1.552405E-6	-74.36875
1.55245E-6	-73.176744
1.552495E-6	-72.85838
1.55254E-6	-72.889524
1.552585E-6	-72.692985
1.55263E-6	-72.76134
1.552675E-6	-72.7417
1.55272E-6	-72.887835
1.552765E-6	-75.071
1.55281E-6	-78.972234
1.552855E-6	-83.46884
1.5529E-6	-86.819367
1.552945E-6	-94.135252
1.55299E-6	-98.099486
1.553035E-6	-87.637147
1.55308E-6	-94.722412
1.553125E-6	-83.449577
1.55317E-6	-76.769543
1.553215E-6	-73.716111
1.55326E-6	-72.867615
1.553305E-6	-72.619333
1.55335E-6	-72.555505
1.553395E-6	-72.725401
1.55344E-6	-72.605859
1.553485E-6	-72.701875
1.55353E-6	-73.156934
1.553575E-6	-75.224447
1.55362E-6	-78.667805
1.553665E-6	-83.423706
1.55371E-6	-92.526659
1.553755E-6	-87.718564
1.5538E-6	-120
1.553845E-6	-98.38632
1.55389E-6	-89.702105
1.553935E-6	-82.915791
1.55398E-6	-76.043242
1.554025E-6	-73.685562
1.55407E-6	-72.824959
1.554115E-6	-72.553941
1.55416E-6	-72.514244
1.554205E-6	-72.515019
1.55425E-6	-72.568824
1.554295E-6	-72.659206
1.55434E-6	-73.19302
1.554385E-6	-75.52222
1.55443E-6	-79.689957
1.554475E-6	-83.957739
1.55452E-6	-87.347104
1.554565E-6	-114.882503
1.55461E-6	-87.196493
1.554655E-6	-120
1.5547E-6	-95.045944
1.554745E-6	-82.380722
1.55479E-6	-75.833595
1.554835E-6	-73.522259
1.55488E-6	-72.740067
1.554925E-6	-72.375465
1.55497E-6	-72.336615
1.555015E-6	-72.183164
1.55506E-6	-72.376966
1.555105E-6	-72.650402
1.55515E-6	-73.312415
1.555195E-6	-75.483671
1.55524E-6	-79.621752
1.555285E-6	-85.907433
1.55533E-6	-90.662091
1.555375E-6	-101.075715
1.55542E-6	-88.735439
1.555465E-6	-90.818648
1.55551E-6	-85.343198
1.555555E-6	-80.971815
1.5556E-6	-75.419668
1.555645E-6	-73.198459
1.55569E-6	-72.516569
1.555735E-6	-72.281187
1.55578E-6	-72.353756
1.555825E-6	-72.359734
1.55587E-6	-72.359734
1.555915E-6	-72.414666
1.55596E-6	-73.168629
1.556005E-6	-75.75445
1.55605E-6	-79.055289
1.556095E-6	-85.909126
1.55614E-6	-96.237881
1.556185E-6	-91.593294
1.55623E-6	-87.734001
1.556275E-6	-87.62205
1.55632E-6	-88.449678
1.556365E-6	-81.005078
1.55641E-6	-75.349147
1.556455E-6	-73.114912
1.5565E-6	-72.449641
1.556545E-6	-72.25556
1.55659E-6	-72.420728
1.556635E-6	-72.248995
1.55668E-6	-72.232262
1.556725E-6	-72.378468
1.55677E-6	-73.318938
1.556815E-6	-75.775743
1.55686E-6	-79.597934
1.556905E-6	-85.492891
1.55695E-6	-120
1.556995E-6	-88.210231
1.55704E-6	-120
1.557085E-6	-85.192746
1.55713E-6	-85.785606
1.557175E-6	-80.05287
1.55722E-6	-74.847887
1.557265E-6	-73.081232
1.55731E-6	-72.473371
1.557355E-6	-72.322506
1.5574E-6	-72.354503
1.557445E-6	-72.335128
1.55749E-6	-72.168113
1.557535E-6	-72.53911
1.55758E-6	-73.500813
1.557625E-6	-75.840256
1.55767E-6	-79.698052
1.557715E-6	-87.031155
1.55776E-6	-91.084068
1.557805E-6	-89.226321
1.55785E-6	-120
1.557895E-6	-91.19015
1.55794E-6	-86.35449
1.557985E-6	-80.681863
1.55803E-6	-75.268051
1.558075E-6	-73.100699
1.55812E-6	-72.448877
1.558165E-6	-72.322506
1.55821E-6	-72.470301
1.558255E-6	-72.47721
1.5583E-6	-72.412395
1.558345E-6	-72.425281
1.55839E-6	-73.412257
1.558435E-6	-76.420652
1.55848E-6	-79.858997
1.558525E-6	-84.015378
1.55857E-6	-106.188849
1.558615E-6	-94.110564
1.55866E-6	-92.015565
1.558705E-6	-120
1.55875E-6	-88.213108
1.558795E-6	-80.58936
1.55884E-6	-75.221555
1.558885E-6	-73.000756
1.55893E-6	-72.567255
1.558975E-6	-72.594005
1.55902E-6	-72.557853
1.559065E-6	-72.609818
1.55911E-6	-72.48952
1.559155E-6	-72.553941
1.5592E-6	-73.702847
1.559245E-6	-75.887171
1.55929E-6	-80.286778
1.559335E-6	-86.092415
1.55938E-6	-90.46772
1.559425E-6	-89.488475
1.55947E-6	-88.079904
1.559515E-6	-89.515582
1.55956E-6	-87.370745
1.559605E-6	-81.141866
1.55965E-6	-75.300308
1.559695E-6	-73.196645
1.55974E-6	-72.905604
1.559785E-6	-72.60665
1.55983E-6	-72.69864
1.559875E-6	-72.718898
1.55992E-6	-72.826624
1.559965E-6	-72.903061
1.56001E-6	-74.094925
1.560055E-6	-76.480105
1.5601E-6	-80.005215
1.560145E-6	-85.364056
1.56019E-6	-89.051796
1.560235E-6	-93.185778
1.56028E-6	-89.657727
1.560325E-6	-93.893398
1.56037E-6	-87.94525
1.560415E-6	-81.788797
1.56046E-6	-76.151092
1.560505E-6	-73.753055
1.56055E-6	-73.173135
1.560595E-6	-73.127387
1.56064E-6	-73.140792
1.560685E-6	-73.027707
1.56073E-6	-73.042557
1.560775E-6	-73.278097
1.56082E-6	-74.101621
1.560865E-6	-76.643415
1.56091E-6	-79.842212
1.560955E-6	-86.069515
1.561E-6	-89.450041
1.561045E-6	-120
1.56109E-6	-120
1.561135E-6	-89.255493
1.56118E-6	-90.531549
1.561225E-6	-81.789452
1.56127E-6	-76.19427
1.561315E-6	-74.081566
1.56136E-6	-73.727366
1.561405E-6	-73.392294
1.56145E-6	-73.571399
1.561495E-6	-73.234893
1.56154E-6	-73.473669
1.561585E-6	-73.800723
1.56163E-6	-74.386601
1.561675E-6	-77.050931
1.56172E-6	-80.209071
1.561765E-6	-85.15985
1.56181E-6	-89.669786
1.561855E-6	-99.122186
1.5619E-6	-90.202241
1.561945E-6	-89.226321
1.56199E-6	-88.992849
1.562035E-6	-82.751509
1.56208E-6	-77.279262
1.562125E-6	-74.93495
1.56217E-6	-74.193031
1.562215E-6	-73.944795
1.56226E-6	-73.882767
1.562305E-6	-73.828948
1.56235E-6	-74.155557
1.562395E-6	-73.992449
1.56244E-6	-74.640733
1.562485E-6	-76.970201
1.56253E-6	-79.488475
1.562575E-6	-85.547072
1.56262E-6	-86.044989
1.562665E-6	-88.810742
1.56271E-6	-120
1.562755E-6	-92.486439
1.5628E-6	-93.837346
1.562845E-6	-83.819519
1.56289E-6	-78.613816
1.562935E-6	-75.246194
1.56298E-6	-74.736607
1.563025E-6	-74.281748
1.56307E-6	-74.353339
1.563115E-6	-74.371126
1.56316E-6	-74.49894
1.563205E-6	-74.690323
1.56325E-6	-74.913356
1.563295E-6	-77.178312
1.56334E-6	-80.31237
1.563385E-6	-83.818473
1.56343E-6	-91.400815
1.563475E-6	-120
1.56352E-6	-120
1.563565E-6	-120
1.56361E-6	-120
1.563655E-6	-84.920093
1.5637E-6	-79.055289
1.563745E-6	-76.074789
1.56379E-6	-75.044557
1.563835E-6	-74.905286
1.56388E-6	-74.944431
1.563925E-6	-74.812229
1.56397E-6	-75.207127
1.564015E-6	-75.086383
1.56406E-6	-75.699249
1.564105E-6	-77.384992
1.56415E-6	-80.095723
1.564195E-6	-89.562449
1.56424E-6	-97.086311
1.564285E-6	-120
1.56433E-6	-89.115095
1.564375E-6	-120
1.56442E-6	-89.948195
1.564465E-6	-85.953373
1.56451E-6	-80.708877
1.564555E-6	-76.931463
1.5646E-6	-75.700863
1.564645E-6	-75.812017
1.56469E-6	-74.806972
1.564735E-6	-75.553308
1.56478E-6	-75.647929
1.564825E-6	-75.609833
1.56487E-6	-75.999804
1.564915E-6	-77.396901
1.56496E-6	-81.011103
1.565005E-6	-85.851937
1.56505E-6	-89.948195
1.565095E-6	-87.396901
1.56514E-6	-92.628869
1.565185E-6	-120
1.56523E-6	-97.690404
1.565275E-6	-88.658229
1.56532E-6	-82.41997
1.565365E-6	-77.9588
1.56541E-6	-76.629403
1.565455E-6	-76.259853
1.5655E-6	-76.067759
1.565545E-6	-76.053732
1.56559E-6	-76.22876
1.565635E-6	-76.33017
1.56568E-6	-76.706021
1.565725E-6	-77.639669
1.56577E-6	-79.918258
1.565815E-6	-86.025815
1.56586E-6	-86.201508
1.565905E-6	-95.565805
1.56595E-6	-90.495378
1.565995E-6	-108.136088
1.56604E-6	-120
1.566085E-6	-89.237237
1.56613E-6	-83.773716
1.566175E-6	-78.880657
1.56622E-6	-77.377863
1.566265E-6	-78.38632
1.56631E-6	-76.683703
1.566355E-6	-77.166988
1.5664E-6	-76.931463
1.566445E-6	-77.162466
1.56649E-6	-77.139929
1.566535E-6	-77.94525
1.56658E-6	-80.17367
1.566625E-6	-83.951262
1.56667E-6	-89.884296
1.566715E-6	-89.423339
1.56676E-6	-120
1.566805E-6	-86.9897
1.56685E-6	-93.122927
1.566895E-6	-89.653715
1.56694E-6	-85.181276
1.566985E-6	-80.030945
1.56703E-6	-78.434508
1.567075E-6	-78.021683
1.56712E-6	-77.235382
1.567165E-6	-77.672579
1.56721E-6	-77.675121
1.567255E-6	-78.046539
1.5673E-6	-78.201611
1.567345E-6	-78.992849
1.56739E-6	-80.335767
1.567435E-6	-86.339508
1.56748E-6	-83.296614
1.567525E-6	-92.337359
1.56757E-6	-90.530077
1.567615E-6	-89.427144
1.56766E-6	-120
1.567705E-6	-89.076303
1.56775E-6	-89.136402
1.567795E-6	-81.457547
1.56784E-6	-79.325572
1.567885E-6	-78.645493
1.56793E-6	-78.190144
1.567975E-6	-78.268137
1.56802E-6	-78.576105
1.568065E-6	-78.572978
1.56811E-6	-78.722475
1.568155E-6	-78.992849
1.5682E-6	-80.82232
1.568245E-6	-83.186683
1.56829E-6	-85.332806
1.568335E-6	-88.804142
1.56838E-6	-94.587953
1.568425E-6	-120
1.56847E-6	-120
1.568515E-6	-97.101882
1.56856E-6	-86.341378
1.568605E-6	-84.576726
1.56865E-6	-80.440718
1.568695E-6	-79.54677
1.56874E-6	-78.951716
1.568785E-6	-78.867253
1.56883E-6	-79.065783
1.568875E-6	-79.24453
1.56892E-6	-79.051796
1.568965E-6	-78.958544
1.56901E-6	-80.575455
1.569055E-6	-83.921163
1.5691E-6	-86.726411
1.569145E-6	-99.714287
1.56919E-6	-120
1.569235E-6	-100.28585
1.56928E-6	-90.421055
1.569325E-6	-120
1.56937E-6	-120
1.569415E-6	-80.979427
1.56946E-6	-81.910467
1.569505E-6	-80.225965
1.56955E-6	-80.401957
1.569595E-6	-80.156978
1.56964E-6	-80.023952
1.569685E-6	-79.649707
1.56973E-6	-79.108016
1.569775E-6	-80.414361
1.56982E-6	-80.696624
1.569865E-6	-83.488189
1.56991E-6	-94.805658
1.569955E-6	-89.665762
1.57E-6	-95.649524
