Wavelength (nm)	Power (dBm)
1.525E-6	-82.227907
1.525045E-6	-82.876029
1.52509E-6	-83.78616
1.525135E-6	-85.821963
1.52518E-6	-86.165437
1.525225E-6	-100.628835
1.52527E-6	-97.544873
1.525315E-6	-89.079815
1.52536E-6	-108.054857
1.525405E-6	-91.693472
1.52545E-6	-92.61378
1.525495E-6	-90.292348
1.52554E-6	-84.364003
1.525585E-6	-82.790143
1.52563E-6	-81.51503
1.525675E-6	-81.932775
1.52572E-6	-80.307239
1.525765E-6	-81.266794
1.52581E-6	-80.991415
1.525855E-6	-81.084625
1.5259E-6	-82.216317
1.525945E-6	-85.598784
1.52599E-6	-87.070797
1.526035E-6	-120
1.52608E-6	-96.957249
1.526125E-6	-120
1.52617E-6	-96.825635
1.526215E-6	-94.983931
1.52626E-6	-87.883456
1.526305E-6	-84.873156
1.52635E-6	-80.988687
1.526395E-6	-80.285386
1.52644E-6	-79.605859
1.526485E-6	-79.931063
1.52653E-6	-79.442395
1.526575E-6	-79.233596
1.52662E-6	-80.252121
1.526665E-6	-80.686947
1.52671E-6	-82.596373
1.526755E-6	-91.144126
1.5268E-6	-90.155177
1.526845E-6	-120
1.52689E-6	-90.103722
1.526935E-6	-120
1.52698E-6	-91.233781
1.527025E-6	-100.616304
1.52707E-6	-86.746896
1.527115E-6	-81.010555
1.52716E-6	-78.576105
1.527205E-6	-78.642315
1.52725E-6	-78.471004
1.527295E-6	-78.687022
1.52734E-6	-78.554258
1.527385E-6	-78.517059
1.52743E-6	-79.115095
1.527475E-6	-81.639292
1.52752E-6	-82.423763
1.527565E-6	-91.121015
1.52761E-6	-89.625735
1.527655E-6	-104.125135
1.5277E-6	-91.705033
1.527745E-6	-96.842395
1.52779E-6	-90.411973
1.527835E-6	-84.951215
1.52788E-6	-80.971815
1.527925E-6	-78.416375
1.52797E-6	-77.996968
1.528015E-6	-77.119745
1.52806E-6	-77.486051
1.528105E-6	-77.705742
1.52815E-6	-78.306195
1.528195E-6	-78.210231
1.52824E-6	-79.625735
1.528285E-6	-84.186193
1.52833E-6	-88.732194
1.528375E-6	-89.854795
1.52842E-6	-120
1.528465E-6	-120
1.52851E-6	-120
1.528555E-6	-88.890738
1.5286E-6	-86.9897
1.528645E-6	-80.647951
1.52869E-6	-77.597004
1.528735E-6	-77.532553
1.52878E-6	-77.196493
1.528825E-6	-77.370745
1.52887E-6	-77.32359
1.528915E-6	-77.142177
1.52896E-6	-77.547342
1.529005E-6	-78.904215
1.52905E-6	-80.925886
1.529095E-6	-84.513649
1.52914E-6	-89.469216
1.529185E-6	-93.971807
1.52923E-6	-91.734717
1.529275E-6	-86.447401
1.52932E-6	-120
1.529365E-6	-89.013563
1.52941E-6	-81.362015
1.529455E-6	-78.282735
1.5295E-6	-77.086311
1.529545E-6	-76.245193
1.52959E-6	-76.577748
1.529635E-6	-76.259853
1.52968E-6	-76.581699
1.529725E-6	-76.281935
1.52977E-6	-77.130946
1.529815E-6	-79.484616
1.52986E-6	-83.552661
1.529905E-6	-89.673812
1.52995E-6	-91.551502
1.529995E-6	-120
1.53004E-6	-102.556288
1.530085E-6	-95.057062
1.53013E-6	-91.499054
1.530175E-6	-82.756422
1.53022E-6	-78.604357
1.530265E-6	-76.152883
1.53031E-6	-76.422557
1.530355E-6	-76.106567
1.5304E-6	-76.149302
1.530445E-6	-75.691191
1.53049E-6	-76.046736
1.530535E-6	-76.840297
1.53058E-6	-78.667805
1.530625E-6	-81.939558
1.53067E-6	-84.713404
1.530715E-6	-81.890286
1.53076E-6	-95.355105
1.530805E-6	-120
1.53085E-6	-92.30475
1.530895E-6	-89.069287
1.53094E-6	-85.062632
1.530985E-6	-79.461536
1.53103E-6	-77.2262
1.531075E-6	-76.263525
1.53112E-6	-75.836924
1.531165E-6	-75.880438
1.53121E-6	-76.192462
1.531255E-6	-75.374523
1.5313E-6	-76.317131
1.531345E-6	-77.542406
1.53139E-6	-79.400581
1.531435E-6	-84.355707
1.53148E-6	-89.351678
1.531525E-6	-90.385314
1.53157E-6	-120
1.531615E-6	-88.71924
1.53166E-6	-93.543813
1.531705E-6	-86.734593
1.53175E-6	-81.458762
1.531795E-6	-77.203331
1.53184E-6	-76.197888
1.531885E-6	-75.846927
1.53193E-6	-75.821963
1.531975E-6	-75.980827
1.53202E-6	-75.747919
1.532065E-6	-76.011923
1.53211E-6	-76.516951
1.532155E-6	-79.325572
1.5322E-6	-82.535215
1.532245E-6	-87.739159
1.53229E-6	-120
1.532335E-6	-102.073282
1.53238E-6	-120
1.532425E-6	-92.589272
1.53247E-6	-87.404061
1.532515E-6	-84.030732
1.53256E-6	-78.87395
1.532605E-6	-76.603498
1.53265E-6	-76.300424
1.532695E-6	-75.984272
1.53274E-6	-76.067759
1.532785E-6	-75.810362
1.53283E-6	-76.307841
1.532875E-6	-76.577748
1.53292E-6	-78.043771
1.532965E-6	-81.200444
1.53301E-6	-84.300412
1.533055E-6	-90.023079
1.5331E-6	-120
1.533145E-6	-92.010733
1.53319E-6	-89.41574
1.533235E-6	-91.54902
1.53328E-6	-88.471004
1.533325E-6	-81.030882
1.53337E-6	-78.127614
1.533415E-6	-76.639407
1.53346E-6	-76.485902
1.533505E-6	-76.491707
1.53355E-6	-76.85922
1.533595E-6	-76.424463
1.53364E-6	-76.483969
1.533685E-6	-77.983298
1.53373E-6	-79.523358
1.533775E-6	-84.051656
1.53382E-6	-93.098926
1.533865E-6	-89.755143
1.53391E-6	-120
1.533955E-6	-95.777385
1.534E-6	-90
1.534045E-6	-88.938091
1.53409E-6	-82.484899
1.534135E-6	-79.480761
1.53418E-6	-77.244583
1.534225E-6	-77.028963
1.53427E-6	-77.055338
1.534315E-6	-77.607005
1.53436E-6	-77.404061
1.534405E-6	-77.286231
1.53445E-6	-77.93714
1.534495E-6	-79.755143
1.53454E-6	-81.428485
1.534585E-6	-91.221681
1.53463E-6	-120
1.534675E-6	-93.213906
1.53472E-6	-120
1.534765E-6	-120
1.53481E-6	-120
1.534855E-6	-87.328283
1.5349E-6	-80.995236
1.534945E-6	-78.87395
1.53499E-6	-78.315025
1.535035E-6	-78.591778
1.53508E-6	-77.79369
1.535125E-6	-77.644716
1.53517E-6	-77.907532
1.535215E-6	-78.356471
1.53526E-6	-78.92112
1.535305E-6	-81.217081
1.53535E-6	-85.253467
1.535395E-6	-88.215987
1.53544E-6	-99.763361
1.535485E-6	-94.709548
1.53553E-6	-120
1.535575E-6	-120
1.53562E-6	-88.210231
1.535665E-6	-85.090588
1.53571E-6	-80.686947
1.535755E-6	-79.136402
1.5358E-6	-78.833923
1.535845E-6	-78.585502
1.53589E-6	-78.787685
1.535935E-6	-78.955129
1.53598E-6	-79.111554
1.536025E-6	-79.299621
1.53607E-6	-80.446972
1.536115E-6	-85.187007
1.53616E-6	-86.718243
1.536205E-6	-86.595559
1.53625E-6	-91.345407
1.536295E-6	-91.711468
1.53634E-6	-93.279021
1.536385E-6	-97.659892
1.53643E-6	-86.852903
1.536475E-6	-82.967946
1.53652E-6	-80.32031
1.536565E-6	-79.35542
1.53661E-6	-79.562449
1.536655E-6	-79.179331
1.5367E-6	-79.351678
1.536745E-6	-79.259153
1.53679E-6	-79.689957
1.536835E-6	-79.854795
1.53688E-6	-82.55707
1.536925E-6	-87.325936
1.53697E-6	-120
1.537015E-6	-92.724587
1.53706E-6	-92.588484
1.537105E-6	-93.727366
1.53715E-6	-92.621715
1.537195E-6	-91.909793
1.53724E-6	-85.710557
1.537285E-6	-82.748237
1.53733E-6	-79.613798
1.537375E-6	-79.389247
1.53742E-6	-79.718356
1.537465E-6	-79.593977
1.53751E-6	-79.385475
1.537555E-6	-79.480761
1.5376E-6	-79.850597
1.537645E-6	-81.876215
1.53769E-6	-84.664821
1.537735E-6	-92.967946
1.53778E-6	-102.931969
1.537825E-6	-120
1.53787E-6	-90.259952
1.537915E-6	-90.045842
1.53796E-6	-120
1.538005E-6	-87.473897
1.53805E-6	-82.903909
1.538095E-6	-81.047432
1.53814E-6	-79.965395
1.538185E-6	-79.347939
1.53823E-6	-80.090399
1.538275E-6	-79.314431
1.53832E-6	-79.593977
1.538365E-6	-79.605859
1.53841E-6	-80.346101
1.538455E-6	-82.430598
1.5385E-6	-87.394516
1.538545E-6	-120
1.53859E-6	-120
1.538635E-6	-92.860896
1.53868E-6	-88.722475
1.538725E-6	-120
1.53877E-6	-100.540393
1.538815E-6	-88.043771
1.53886E-6	-81.514414
1.538905E-6	-80.167798
1.53895E-6	-79.006647
1.538995E-6	-79.325572
1.53904E-6	-79.554602
1.539085E-6	-79.763361
1.53913E-6	-79.465374
1.539175E-6	-79.948195
1.53922E-6	-81.73666
1.539265E-6	-85.573635
1.53931E-6	-87.619539
1.539355E-6	-90.449379
1.5394E-6	-120
1.539445E-6	-120
1.53949E-6	-120
1.539535E-6	-120
1.53958E-6	-86.158259
1.539625E-6	-82.718086
1.53967E-6	-80.817599
1.539715E-6	-79.863203
1.53976E-6	-79.318141
1.539805E-6	-79.825493
1.53985E-6	-79.08333
1.539895E-6	-79.318141
1.53994E-6	-79.393022
1.539985E-6	-80.300253
1.54003E-6	-82.038421
1.540075E-6	-85.797141
1.54012E-6	-87.420815
1.540165E-6	-88.860566
1.54021E-6	-100.789902
1.540255E-6	-92.323248
1.5403E-6	-100.734518
1.540345E-6	-95.946536
1.54039E-6	-86.356366
1.540435E-6	-82.332155
1.54048E-6	-79.909743
1.540525E-6	-79.465374
1.54057E-6	-79.051796
1.540615E-6	-78.877302
1.54066E-6	-79.259153
1.540705E-6	-79.538952
1.54075E-6	-79.37418
1.540795E-6	-80.743785
1.54084E-6	-84.797786
1.540885E-6	-88.032713
1.54093E-6	-120
1.540975E-6	-120
1.54102E-6	-91.618438
1.541065E-6	-120
1.54111E-6	-91.947031
1.541155E-6	-101.99833
1.5412E-6	-83.116692
1.541245E-6	-80.469655
1.54129E-6	-79.333014
1.541335E-6	-78.850556
1.54138E-6	-78.917733
1.541425E-6	-78.934691
1.54147E-6	-79.240882
1.541515E-6	-79.288547
1.54156E-6	-79.633711
1.541605E-6	-81.020432
1.54165E-6	-84.936303
1.541695E-6	-88.119156
1.54174E-6	-93.122036
1.541785E-6	-120
1.54183E-6	-120
1.541875E-6	-97.772835
1.54192E-6	-89.104481
1.541965E-6	-91.856858
1.54201E-6	-81.292451
1.542055E-6	-79.04482
1.5421E-6	-78.712777
1.542145E-6	-79.08333
1.54219E-6	-78.306195
1.542235E-6	-78.416375
1.54228E-6	-78.461851
1.542325E-6	-78.732194
1.54237E-6	-79.821323
1.542415E-6	-82.618539
1.54246E-6	-86.643415
1.542505E-6	-97.85421
1.54255E-6	-91.767214
1.542595E-6	-120
1.54264E-6	-91.982534
1.542685E-6	-94.334447
1.54273E-6	-92.895441
1.542775E-6	-83.573377
1.54282E-6	-80.589858
1.542865E-6	-78.948306
1.54291E-6	-78.22175
1.542955E-6	-78.71924
1.543E-6	-78.244882
1.543045E-6	-78.629625
1.54309E-6	-78.079904
1.543135E-6	-78.687022
1.54318E-6	-80.123337
1.543225E-6	-81.858856
1.54327E-6	-87.088532
1.543315E-6	-92.683307
1.54336E-6	-99.329291
1.543405E-6	-120
1.54345E-6	-88.804142
1.543495E-6	-92.271651
1.54354E-6	-90.890023
1.543585E-6	-82.772838
1.54363E-6	-80.089956
1.543675E-6	-78.894103
1.54372E-6	-78.273971
1.543765E-6	-78.320922
1.54381E-6	-78.860566
1.543855E-6	-78.416375
1.5439E-6	-78.616973
1.543945E-6	-78.860566
1.54399E-6	-80.214999
1.544035E-6	-85.32836
1.54408E-6	-90.126466
1.544125E-6	-101.573284
1.54417E-6	-120
1.544215E-6	-120
1.54426E-6	-94.362817
1.544305E-6	-93.328273
1.54435E-6	-85.675117
1.544395E-6	-80.687965
1.54444E-6	-78.880657
1.544485E-6	-79.023957
1.54453E-6	-77.664962
1.544575E-6	-78.44057
1.54462E-6	-78.320922
1.544665E-6	-78.790972
1.54471E-6	-78.604357
1.544755E-6	-79.511699
1.5448E-6	-82.583757
1.544845E-6	-99.535048
1.54489E-6	-92.908997
1.544935E-6	-93.939413
1.54498E-6	-86.946486
1.545025E-6	-88.777841
1.54507E-6	-80.814455
1.545115E-6	-66.0206
1.54516E-6	-52.462638
1.545205E-6	-46.524748
1.54525E-6	-43.740705
1.545295E-6	-43.235808
1.54534E-6	-43.167728
1.545385E-6	-43.14527
1.54543E-6	-43.157832
1.545475E-6	-43.575355
1.54552E-6	-45.543958
1.545565E-6	-50.313303
1.54561E-6	-59.842212
1.545655E-6	-68.44664
1.5457E-6	-75.898979
1.545745E-6	-81.665341
1.54579E-6	-86.790233
1.545835E-6	-87.975117
1.54588E-6	-93.993538
1.545925E-6	-87.124222
1.54597E-6	-82.374715
1.546015E-6	-79.344203
1.54606E-6	-78.193008
1.546105E-6	-78.285661
1.54615E-6	-78.486301
1.546195E-6	-77.94525
1.54624E-6	-78.253588
1.546285E-6	-78.37137
1.54633E-6	-78.910969
1.546375E-6	-80.008695
1.54642E-6	-84.139756
1.546465E-6	-90.812883
1.54651E-6	-90.717578
1.546555E-6	-120
1.5466E-6	-120
1.546645E-6	-91.200444
1.54669E-6	-89.718356
1.546735E-6	-84.907975
1.54678E-6	-81.894315
1.546825E-6	-79.04482
1.54687E-6	-78.041003
1.546915E-6	-78.06041
1.54696E-6	-78.213108
1.547005E-6	-77.512913
1.54705E-6	-78.175853
1.547095E-6	-78.648673
1.54714E-6	-78.982529
1.547185E-6	-81.502122
1.54723E-6	-86.577748
1.547275E-6	-85.982549
1.54732E-6	-91.923297
1.547365E-6	-120
1.54741E-6	-94.571746
1.547455E-6	-120
1.5475E-6	-100.005215
1.547545E-6	-84.029633
1.54759E-6	-80.687965
1.547635E-6	-78.517059
1.54768E-6	-78.091083
1.547725E-6	-78.138916
1.54777E-6	-77.878124
1.547815E-6	-77.93714
1.54786E-6	-78.218867
1.547905E-6	-78.032713
1.54795E-6	-80.001738
1.547995E-6	-81.822364
1.54804E-6	-88.04931
1.548085E-6	-120
1.54813E-6	-120
1.548175E-6	-120
1.54822E-6	-92.085901
1.548265E-6	-83.595186
1.54831E-6	-87.075224
1.548355E-6	-84.410516
1.5484E-6	-79.706162
1.548445E-6	-78.658229
1.54849E-6	-78.501653
1.548535E-6	-78.127614
1.54858E-6	-78.035475
1.548625E-6	-78.119156
1.54867E-6	-78.407337
1.548715E-6	-78.787685
1.54876E-6	-80.117979
1.548805E-6	-83.277174
1.54885E-6	-87.612014
1.548895E-6	-93.017254
1.54894E-6	-96.460838
1.548985E-6	-90.163286
1.54903E-6	-103.661277
1.549075E-6	-96.333903
1.54912E-6	-89.653715
1.549165E-6	-82.050243
1.54921E-6	-79.197344
1.549255E-6	-78.87395
1.5493E-6	-78.268137
1.549345E-6	-77.594508
1.54939E-6	-78.06319
1.549435E-6	-77.675121
1.54948E-6	-77.899492
1.549525E-6	-79.706162
1.54957E-6	-80.07049
1.549615E-6	-82.83329
1.54966E-6	-89.147094
1.549705E-6	-120
1.54975E-6	-88.894103
1.549795E-6	-92.235167
1.54984E-6	-82.991233
1.549885E-6	-74.87983
1.54993E-6	-58.642315
1.549975E-6	-48.761484
1.55002E-6	-44.429743
1.550065E-6	-43.225756
1.55011E-6	-43.041682
1.550155E-6	-43.028579
1.5502E-6	-42.998157
1.550245E-6	-43.068009
1.55029E-6	-43.898724
1.550335E-6	-46.861328
1.55038E-6	-53.321736
1.550425E-6	-62.439728
1.55047E-6	-71.12214
1.550515E-6	-78.601209
1.55056E-6	-83.760275
1.550605E-6	-87.554755
1.55065E-6	-92.321765
1.550695E-6	-93.944795
1.55074E-6	-84.727569
1.550785E-6	-80.933956
1.55083E-6	-78.761484
1.550875E-6	-77.994231
1.55092E-6	-78.119156
1.550965E-6	-77.337683
1.55101E-6	-77.490923
1.551055E-6	-77.896815
1.5511E-6	-77.731424
1.551145E-6	-79.219058
1.55119E-6	-80.982693
1.551235E-6	-86.283781
1.55128E-6	-93.362991
1.551325E-6	-106.869769
1.55137E-6	-90.763934
1.551415E-6	-120
1.55146E-6	-90.655015
1.551505E-6	-88.315025
1.55155E-6	-83.656235
1.551595E-6	-80.437355
1.55164E-6	-78.748442
1.551685E-6	-77.404061
1.55173E-6	-78.124793
1.551775E-6	-77.672579
1.55182E-6	-77.830428
1.551865E-6	-77.762445
1.55191E-6	-78.024438
1.551955E-6	-79.164974
1.552E-6	-81.637392
1.552045E-6	-84.597957
1.55209E-6	-100.727837
1.552135E-6	-110.617806
1.55218E-6	-89.200955
1.552225E-6	-93.314277
1.55227E-6	-90.558629
1.552315E-6	-98.787685
1.55236E-6	-83.52617
1.552405E-6	-79.34047
1.55245E-6	-78.024438
1.552495E-6	-77.672579
1.55254E-6	-77.687854
1.552585E-6	-77.527635
1.55263E-6	-77.840982
1.552675E-6	-77.498241
1.55272E-6	-77.532553
1.552765E-6	-78.787685
1.55281E-6	-82.126104
1.552855E-6	-86.170829
1.5529E-6	-91.388242
1.552945E-6	-90.063434
1.55299E-6	-90.25903
1.553035E-6	-91.860189
1.55308E-6	-120
1.553125E-6	-120
1.55317E-6	-82.470301
1.553215E-6	-80.024826
1.55326E-6	-78.480176
1.553305E-6	-77.542406
1.55335E-6	-76.836102
1.553395E-6	-77.498241
1.55344E-6	-77.726276
1.553485E-6	-77.710866
1.55353E-6	-78.133261
1.553575E-6	-79.681877
1.55362E-6	-81.799957
1.553665E-6	-86.950788
1.55371E-6	-87.32359
1.553755E-6	-89.804683
1.5538E-6	-95.439378
1.553845E-6	-91.646265
1.55389E-6	-93.229408
1.553935E-6	-87.582046
1.55398E-6	-82.866775
1.554025E-6	-79.172146
1.55407E-6	-77.996968
1.554115E-6	-77.307206
1.55416E-6	-77.297871
1.554205E-6	-76.890944
1.55425E-6	-76.972363
1.554295E-6	-77.246886
1.55434E-6	-77.862167
1.554385E-6	-79.461536
1.55443E-6	-83.056581
1.554475E-6	-86.880343
1.55452E-6	-91.038046
1.554565E-6	-99.969705
1.55461E-6	-92.289272
1.554655E-6	-120
1.5547E-6	-92.43516
1.554745E-6	-88.979095
1.55479E-6	-81.509493
1.554835E-6	-78.843895
1.55488E-6	-77.739159
1.554925E-6	-77.191941
1.55497E-6	-77.710866
1.555015E-6	-77.416022
1.55506E-6	-77.627077
1.555105E-6	-77.117508
1.55515E-6	-78.164455
1.555195E-6	-80.096167
1.55524E-6	-83.724293
1.555285E-6	-87.425614
1.55533E-6	-120
1.555375E-6	-120
1.55542E-6	-88.709549
1.555465E-6	-90.303977
1.55551E-6	-88.78112
1.555555E-6	-86.914356
1.5556E-6	-81.161115
1.555645E-6	-78.288588
1.55569E-6	-76.855008
1.555735E-6	-76.74895
1.55578E-6	-76.663512
1.555825E-6	-77.535014
1.55587E-6	-77.053134
1.555915E-6	-76.987529
1.55596E-6	-78.110715
1.556005E-6	-80.006519
1.55605E-6	-84.476969
1.556095E-6	-89.888526
1.55614E-6	-94.378261
1.556185E-6	-93.708963
1.55623E-6	-91.485582
1.556275E-6	-98.999743
1.55632E-6	-94.199879
1.556365E-6	-86.076548
1.55641E-6	-80.942041
1.556455E-6	-78.693447
1.5565E-6	-77.015836
1.556545E-6	-76.742791
1.55659E-6	-77.223908
1.556635E-6	-79.208188
1.55668E-6	-77.026773
1.556725E-6	-77.126462
1.55677E-6	-78.007935
1.556815E-6	-79.909743
1.55686E-6	-85.294425
1.556905E-6	-87.986029
1.55695E-6	-97.304871
1.556995E-6	-120
1.55704E-6	-94.687766
1.557085E-6	-90.144837
1.55713E-6	-88.777841
1.557175E-6	-85.705707
1.55722E-6	-80.938805
1.557265E-6	-78.213108
1.55731E-6	-77.708303
1.557355E-6	-76.983191
1.5574E-6	-77.151183
1.557445E-6	-77.002748
1.55749E-6	-77.557229
1.557535E-6	-77.330631
1.55758E-6	-77.708303
1.557625E-6	-79.792245
1.55767E-6	-85.055671
1.557715E-6	-89.427144
1.55776E-6	-82.483361
1.557805E-6	-92.138877
1.55785E-6	-120
1.557895E-6	-120
1.55794E-6	-90.405293
1.557985E-6	-85.984272
1.55803E-6	-81.13171
1.558075E-6	-78.190144
1.55812E-6	-77.654827
1.558165E-6	-77.230789
1.55821E-6	-77.330631
1.558255E-6	-76.933606
1.5583E-6	-77.135435
1.558345E-6	-77.311881
1.55839E-6	-78.187282
1.558435E-6	-79.956786
1.55848E-6	-82.867615
1.558525E-6	-87.418418
1.55857E-6	-120
1.558615E-6	-90.747395
1.55866E-6	-87.754669
1.558705E-6	-95.939711
1.55875E-6	-120
1.558795E-6	-87.734001
1.55884E-6	-80.498299
1.558885E-6	-79.037854
1.55893E-6	-77.670039
1.558975E-6	-77.288557
1.55902E-6	-77.425614
1.559065E-6	-77.744323
1.55911E-6	-77.316561
1.559155E-6	-77.447275
1.5592E-6	-77.999707
1.559245E-6	-80.152477
1.55929E-6	-80.813931
1.559335E-6	-90.712458
1.55938E-6	-120
1.559425E-6	-89.726504
1.55947E-6	-99.978339
1.559515E-6	-87.447275
1.55956E-6	-120
1.559605E-6	-86.337639
1.55965E-6	-82.248266
1.559695E-6	-78.452718
1.55974E-6	-77.304871
1.559785E-6	-77.657359
1.55983E-6	-77.639669
1.559875E-6	-77.203331
1.55992E-6	-77.176045
1.559965E-6	-77.867479
1.56001E-6	-79.222688
1.560055E-6	-79.669786
1.5601E-6	-84.886515
1.560145E-6	-90.852867
1.56019E-6	-93.589227
1.560235E-6	-95.057062
1.56028E-6	-90.156077
1.560325E-6	-92.692985
1.56037E-6	-120
1.560415E-6	-87.74174
1.56046E-6	-81.432711
1.560505E-6	-79.535048
1.56055E-6	-78.59492
1.560595E-6	-78.105097
1.56064E-6	-77.942545
1.560685E-6	-77.749493
1.56073E-6	-77.804155
1.560775E-6	-77.770236
1.56082E-6	-78.9279
1.560865E-6	-79.669786
1.56091E-6	-86.9897
1.560955E-6	-120
1.561E-6	-120
1.561045E-6	-120
1.56109E-6	-90.808173
1.561135E-6	-89.19013
1.56118E-6	-120
1.561225E-6	-85.488278
1.56127E-6	-82.094334
1.561315E-6	-79.718356
1.56136E-6	-78.699881
1.561405E-6	-78.262312
1.56145E-6	-78.043771
1.561495E-6	-78.50473
1.56154E-6	-78.218867
1.561585E-6	-78.507809
1.56163E-6	-78.817353
1.561675E-6	-80.550241
1.56172E-6	-85.045944
1.561765E-6	-85.676722
1.56181E-6	-92.185319
1.561855E-6	-120
1.5619E-6	-120
1.561945E-6	-120
1.56199E-6	-93.267947
1.562035E-6	-86.607474
1.56208E-6	-82.818306
1.562125E-6	-80.118425
1.56217E-6	-78.982529
1.562215E-6	-79.266483
1.56226E-6	-79.154237
1.562305E-6	-78.356471
1.56235E-6	-79.292235
1.562395E-6	-78.693447
1.56244E-6	-78.661419
1.562485E-6	-81.747037
1.56253E-6	-84.478187
1.562575E-6	-87.822529
1.56262E-6	-120
1.562665E-6	-120
1.56271E-6	-88.9279
1.562755E-6	-89.100949
1.5628E-6	-120
1.562845E-6	-88.598063
1.56289E-6	-83.009431
1.562935E-6	-80.039702
1.56298E-6	-79.542859
1.563025E-6	-79.333014
1.56307E-6	-79.473061
1.563115E-6	-79.370422
1.56316E-6	-79.554602
1.563205E-6	-79.850597
1.56325E-6	-79.586073
1.563295E-6	-81.420045
1.56334E-6	-84.181641
1.563385E-6	-89.527251
1.56343E-6	-92.232262
1.563475E-6	-92.520447
1.56352E-6	-90.727323
1.563565E-6	-97.366007
1.56361E-6	-92.726214
1.563655E-6	-89.97402
1.5637E-6	-83.857357
1.563745E-6	-82.275316
1.56379E-6	-80.580416
1.563835E-6	-79.738755
1.56388E-6	-79.718356
1.563925E-6	-79.273825
1.56397E-6	-79.948195
1.564015E-6	-80.367317
1.56406E-6	-80.543345
1.564105E-6	-81.173616
1.56415E-6	-86.247023
1.564195E-6	-88.37137
1.56424E-6	-96.53647
1.564285E-6	-93.179452
1.56433E-6	-97.599502
1.564375E-6	-90.070932
1.56442E-6	-96.79646
1.564465E-6	-89.800533
1.56451E-6	-86.414941
1.564555E-6	-81.537866
1.5646E-6	-80.741209
1.564645E-6	-80.225965
1.56469E-6	-80.63788
1.564735E-6	-80.11664
1.56478E-6	-80.00913
1.564825E-6	-80.407678
1.56487E-6	-80.605806
1.564915E-6	-81.74509
1.56496E-6	-84.393761
1.565005E-6	-88.894103
1.56505E-6	-95.010006
1.565095E-6	-94.005536
1.56514E-6	-95.231684
1.565185E-6	-120
1.56523E-6	-92.227907
1.565275E-6	-120
1.56532E-6	-85.691191
1.565365E-6	-83.332949
1.56541E-6	-81.903056
1.565455E-6	-80.769115
1.5655E-6	-81.014394
1.565545E-6	-80.810266
1.56559E-6	-81.008911
1.565635E-6	-80.317973
1.56568E-6	-80.972902
1.565725E-6	-82.648804
1.56577E-6	-83.717133
1.565815E-6	-90.231459
1.56586E-6	-89.763361
1.565905E-6	-120
1.56595E-6	-120
1.565995E-6	-120
1.56604E-6	-92.931969
1.566085E-6	-93.565473
1.56613E-6	-98.955129
1.566175E-6	-84.080454
1.56622E-6	-82.857541
1.566265E-6	-82.240984
1.56631E-6	-81.71469
1.566355E-6	-81.343631
1.5664E-6	-81.568295
1.566445E-6	-81.447838
1.56649E-6	-81.748986
1.566535E-6	-82.87182
1.56658E-6	-83.984832
1.566625E-6	-88.563608
1.56667E-6	-92.829123
1.566715E-6	-89.590023
1.56676E-6	-120
1.566805E-6	-96.765416
1.56685E-6	-120
1.566895E-6	-89.295927
1.56694E-6	-112.602695
1.566985E-6	-85.965363
1.56703E-6	-82.8208
1.567075E-6	-82.541448
1.56712E-6	-82.164537
1.567165E-6	-82.790143
1.56721E-6	-82.420728
1.567255E-6	-82.550033
1.5673E-6	-82.690563
1.567345E-6	-83.534982
1.56739E-6	-83.718155
1.567435E-6	-86.101254
1.56748E-6	-94.12289
1.567525E-6	-88.810742
1.56757E-6	-120
1.567615E-6	-94.45632
1.56766E-6	-98.725712
1.567705E-6	-93.611116
1.56775E-6	-89.076303
1.567795E-6	-86.950788
1.56784E-6	-84.595454
1.567885E-6	-84.180503
1.56793E-6	-84.241197
1.567975E-6	-82.266525
1.56802E-6	-83.110465
1.568065E-6	-82.543008
1.56811E-6	-84.211317
1.568155E-6	-84.73144
1.5682E-6	-84.058285
1.568245E-6	-88.024438
1.56829E-6	-94.713404
1.568335E-6	-93.764406
1.56838E-6	-94.616777
1.568425E-6	-120
1.56847E-6	-94.30509
1.568515E-6	-88.320922
1.56856E-6	-94.795165
1.568605E-6	-91.684501
1.56865E-6	-86.305986
1.568695E-6	-84.936303
1.56874E-6	-84.439388
1.568785E-6	-82.796753
1.56883E-6	-83.757179
1.568875E-6	-83.393242
1.56892E-6	-84.223933
1.568965E-6	-84.162346
1.56901E-6	-85.673513
1.569055E-6	-86.399749
1.5691E-6	-88.658229
1.569145E-6	-120
1.56919E-6	-120
1.569235E-6	-120
1.56928E-6	-90.332015
1.569325E-6	-120
1.56937E-6	-96.933606
1.569415E-6	-90.681355
1.56946E-6	-87.47147
1.569505E-6	-83.186683
1.56955E-6	-85.734887
1.569595E-6	-85.347659
1.56964E-6	-85.662302
1.569685E-6	-87.042131
1.56973E-6	-84.762535
1.569775E-6	-84.8096
1.56982E-6	-86.912222
1.569865E-6	-87.627077
1.56991E-6	-94.89455
1.569955E-6	-92.930263
1.57E-6	-91.433919
