Wavelength (nm)	Power (dBm)
1.525E-6	-47.587026
1.525045E-6	-47.493361
1.52509E-6	-47.406451
1.525135E-6	-47.295541
1.52518E-6	-47.194216
1.525225E-6	-47.092978
1.52527E-6	-47.009287
1.525315E-6	-46.920763
1.52536E-6	-46.836102
1.525405E-6	-46.73869
1.52545E-6	-46.653452
1.525495E-6	-46.560009
1.52554E-6	-46.489771
1.525585E-6	-46.414941
1.52563E-6	-46.322715
1.525675E-6	-46.236056
1.52572E-6	-46.152883
1.525765E-6	-46.08712
1.52581E-6	-46.018863
1.525855E-6	-45.939711
1.5259E-6	-45.861975
1.525945E-6	-45.793842
1.52599E-6	-45.721894
1.526035E-6	-45.662302
1.52608E-6	-45.616159
1.526125E-6	-45.531523
1.52617E-6	-45.466817
1.526215E-6	-45.382014
1.52626E-6	-45.343198
1.526305E-6	-45.26659
1.52635E-6	-45.212892
1.526395E-6	-45.15985
1.52644E-6	-45.066814
1.526485E-6	-45.018273
1.52653E-6	-44.996263
1.526575E-6	-44.92414
1.52662E-6	-44.86516
1.526665E-6	-44.803032
1.52671E-6	-44.752146
1.526755E-6	-44.73144
1.5268E-6	-44.689045
1.526845E-6	-44.62055
1.52689E-6	-44.586704
1.526935E-6	-44.541982
1.52698E-6	-44.468455
1.527025E-6	-44.439388
1.52707E-6	-44.391373
1.527115E-6	-44.354523
1.52716E-6	-44.319157
1.527205E-6	-44.259687
1.52725E-6	-44.22968
1.527295E-6	-44.206738
1.52734E-6	-44.166878
1.527385E-6	-44.133002
1.52743E-6	-44.093811
1.527475E-6	-44.078232
1.52752E-6	-44.03293
1.527565E-6	-44.023048
1.52761E-6	-43.990271
1.527655E-6	-43.951262
1.5277E-6	-43.936186
1.527745E-6	-43.897658
1.52779E-6	-43.87534
1.527835E-6	-43.856302
1.52788E-6	-43.823707
1.527925E-6	-43.775787
1.52797E-6	-43.756148
1.528015E-6	-43.72839
1.52806E-6	-43.726341
1.528105E-6	-43.704885
1.52815E-6	-43.67644
1.528195E-6	-43.652205
1.52824E-6	-43.640139
1.528285E-6	-43.627105
1.52833E-6	-43.623102
1.528375E-6	-43.612113
1.52842E-6	-43.608124
1.528465E-6	-43.574366
1.52851E-6	-43.552661
1.528555E-6	-43.560541
1.5286E-6	-43.530085
1.528645E-6	-43.49207
1.52869E-6	-43.483344
1.528735E-6	-43.464016
1.52878E-6	-43.462088
1.528825E-6	-43.485281
1.52887E-6	-43.439977
1.528915E-6	-43.448616
1.52896E-6	-43.406544
1.529005E-6	-43.414163
1.52905E-6	-43.418932
1.529095E-6	-43.425617
1.52914E-6	-43.402739
1.529185E-6	-43.392294
1.52923E-6	-43.380927
1.529275E-6	-43.392294
1.52932E-6	-43.381873
1.529365E-6	-43.380927
1.52941E-6	-43.365818
1.529455E-6	-43.348883
1.5295E-6	-43.339503
1.529545E-6	-43.335756
1.52959E-6	-43.34044
1.529635E-6	-43.322669
1.52968E-6	-43.321736
1.529725E-6	-43.322669
1.52977E-6	-43.318938
1.529815E-6	-43.34044
1.52986E-6	-43.339503
1.529905E-6	-43.32547
1.52995E-6	-43.317073
1.529995E-6	-43.322669
1.53004E-6	-43.333884
1.530085E-6	-43.356401
1.53013E-6	-43.331078
1.530175E-6	-43.317073
1.53022E-6	-43.333884
1.530265E-6	-43.302184
1.53031E-6	-43.310553
1.530355E-6	-43.304042
1.5304E-6	-43.324537
1.530445E-6	-43.308692
1.53049E-6	-43.310553
1.530535E-6	-43.318005
1.53058E-6	-43.338566
1.530625E-6	-43.346066
1.53067E-6	-43.349822
1.530715E-6	-43.345128
1.53076E-6	-43.362049
1.530805E-6	-43.379981
1.53085E-6	-43.375255
1.530895E-6	-43.393242
1.53094E-6	-43.375255
1.530985E-6	-43.365818
1.53103E-6	-43.35358
1.531075E-6	-43.392294
1.53112E-6	-43.401788
1.531165E-6	-43.383766
1.53121E-6	-43.405592
1.531255E-6	-43.419886
1.5313E-6	-43.425617
1.531345E-6	-43.459198
1.53139E-6	-43.465945
1.531435E-6	-43.463052
1.53148E-6	-43.478504
1.531525E-6	-43.498868
1.53157E-6	-43.524214
1.531615E-6	-43.520305
1.53166E-6	-43.550693
1.531705E-6	-43.534002
1.53175E-6	-43.551677
1.531795E-6	-43.555614
1.53184E-6	-43.586251
1.531885E-6	-43.591212
1.53193E-6	-43.597174
1.531975E-6	-43.625103
1.53202E-6	-43.650192
1.532065E-6	-43.669357
1.53211E-6	-43.692671
1.532155E-6	-43.704885
1.5322E-6	-43.727366
1.532245E-6	-43.740705
1.53229E-6	-43.764406
1.532335E-6	-43.796557
1.53238E-6	-43.805936
1.532425E-6	-43.824755
1.53247E-6	-43.84576
1.532515E-6	-43.849974
1.53256E-6	-43.880644
1.532605E-6	-43.901922
1.53265E-6	-43.919021
1.532695E-6	-43.936186
1.53274E-6	-43.987007
1.532785E-6	-43.996807
1.53283E-6	-44.011001
1.532875E-6	-44.068247
1.53292E-6	-44.076012
1.532965E-6	-44.102737
1.53301E-6	-44.133002
1.533055E-6	-44.177093
1.5331E-6	-44.19189
1.533145E-6	-44.22738
1.53319E-6	-44.244658
1.533235E-6	-44.268962
1.53328E-6	-44.293403
1.533325E-6	-44.332091
1.53337E-6	-44.345064
1.533415E-6	-44.386601
1.53346E-6	-44.397346
1.533505E-6	-44.45632
1.53355E-6	-44.473318
1.533595E-6	-44.505063
1.53364E-6	-44.534573
1.533685E-6	-44.57299
1.53373E-6	-44.615519
1.533775E-6	-44.659739
1.53382E-6	-44.694161
1.533865E-6	-44.7379
1.53391E-6	-44.788619
1.533955E-6	-44.803032
1.534E-6	-44.834646
1.534045E-6	-44.867824
1.53409E-6	-44.89321
1.534135E-6	-44.9485
1.53418E-6	-44.955291
1.534225E-6	-44.979828
1.53427E-6	-45.01276
1.534315E-6	-45.058454
1.53436E-6	-45.097605
1.534405E-6	-45.155578
1.53445E-6	-45.157002
1.534495E-6	-45.199931
1.53454E-6	-45.25638
1.534585E-6	-45.320961
1.53463E-6	-45.346171
1.534675E-6	-45.377518
1.53472E-6	-45.413622
1.534765E-6	-45.44546
1.53481E-6	-45.505216
1.534855E-6	-45.537736
1.5349E-6	-45.556429
1.534945E-6	-45.575202
1.53499E-6	-45.62408
1.535035E-6	-45.639965
1.53508E-6	-45.707323
1.535125E-6	-45.743028
1.53517E-6	-45.788899
1.535215E-6	-45.788899
1.53526E-6	-45.848596
1.535305E-6	-45.909126
1.53535E-6	-45.96022
1.535395E-6	-46.003263
1.53544E-6	-46.03452
1.535485E-6	-46.051982
1.53553E-6	-46.08712
1.535575E-6	-46.131445
1.53562E-6	-46.181632
1.535665E-6	-46.185239
1.53571E-6	-46.208759
1.535755E-6	-46.252517
1.5358E-6	-46.259853
1.535845E-6	-46.307841
1.53589E-6	-46.36388
1.535935E-6	-46.377061
1.53598E-6	-46.409238
1.536025E-6	-46.432095
1.53607E-6	-46.493644
1.536115E-6	-46.53647
1.53616E-6	-46.565914
1.536205E-6	-46.595559
1.53625E-6	-46.623411
1.536295E-6	-46.645421
1.53634E-6	-46.683703
1.536385E-6	-46.73869
1.53643E-6	-46.765416
1.536475E-6	-46.74895
1.53652E-6	-46.753061
1.536565E-6	-46.784016
1.53661E-6	-46.821455
1.536655E-6	-46.861328
1.5367E-6	-46.903698
1.536745E-6	-46.903698
1.53679E-6	-46.907958
1.536835E-6	-46.959405
1.53688E-6	-46.996219
1.536925E-6	-47.050931
1.53697E-6	-47.059749
1.537015E-6	-47.077439
1.53706E-6	-47.086311
1.537105E-6	-47.137681
1.53715E-6	-47.153437
1.537195E-6	-47.173779
1.53724E-6	-47.155693
1.537285E-6	-47.164726
1.53733E-6	-47.176045
1.537375E-6	-47.20105
1.53742E-6	-47.221617
1.537465E-6	-47.249191
1.53751E-6	-47.23998
1.537555E-6	-47.258422
1.5376E-6	-47.276942
1.537645E-6	-47.321246
1.53769E-6	-47.358908
1.537735E-6	-47.373117
1.53778E-6	-47.382615
1.537825E-6	-47.377863
1.53787E-6	-47.413627
1.537915E-6	-47.418418
1.53796E-6	-47.420815
1.538005E-6	-47.413627
1.53805E-6	-47.408842
1.538095E-6	-47.408842
1.53814E-6	-47.418418
1.538185E-6	-47.440043
1.53823E-6	-47.440043
1.538275E-6	-47.435228
1.53832E-6	-47.437635
1.538365E-6	-47.456937
1.53841E-6	-47.488487
1.538455E-6	-47.517814
1.5385E-6	-47.508016
1.538545E-6	-47.512913
1.53859E-6	-47.527635
1.538635E-6	-47.532553
1.53868E-6	-47.547342
1.538725E-6	-47.530093
1.53877E-6	-47.537477
1.538815E-6	-47.503126
1.53886E-6	-47.500682
1.538905E-6	-47.515363
1.53895E-6	-47.512913
1.538995E-6	-47.4958
1.53904E-6	-47.478754
1.539085E-6	-47.478754
1.53913E-6	-47.4958
1.539175E-6	-47.515363
1.53922E-6	-47.542406
1.539265E-6	-47.544873
1.53931E-6	-47.532553
1.539355E-6	-47.530093
1.5394E-6	-47.544873
1.539445E-6	-47.547342
1.53949E-6	-47.542406
1.539535E-6	-47.557229
1.53958E-6	-47.508016
1.539625E-6	-47.493361
1.53967E-6	-47.4958
1.539715E-6	-47.488487
1.53976E-6	-47.478754
1.539805E-6	-47.449688
1.53985E-6	-47.461776
1.539895E-6	-47.461776
1.53994E-6	-47.454519
1.539985E-6	-47.469044
1.54003E-6	-47.481185
1.540075E-6	-47.476325
1.54012E-6	-47.478754
1.540165E-6	-47.476325
1.54021E-6	-47.481185
1.540255E-6	-47.469044
1.5403E-6	-47.456937
1.540345E-6	-47.442452
1.54039E-6	-47.420815
1.540435E-6	-47.389752
1.54048E-6	-47.382615
1.540525E-6	-47.368375
1.54057E-6	-47.358908
1.540615E-6	-47.356545
1.54066E-6	-47.354183
1.540705E-6	-47.366007
1.54075E-6	-47.363639
1.540795E-6	-47.358908
1.54084E-6	-47.384992
1.540885E-6	-47.373117
1.54093E-6	-47.368375
1.540975E-6	-47.368375
1.54102E-6	-47.356545
1.541065E-6	-47.344747
1.54111E-6	-47.328283
1.541155E-6	-47.330631
1.5412E-6	-47.307206
1.541245E-6	-47.274622
1.54129E-6	-47.260732
1.541335E-6	-47.265357
1.54138E-6	-47.249191
1.541425E-6	-47.249191
1.54147E-6	-47.256112
1.541515E-6	-47.23998
1.54156E-6	-47.230789
1.541605E-6	-47.23768
1.54165E-6	-47.263044
1.541695E-6	-47.263044
1.54174E-6	-47.265357
1.541785E-6	-47.251497
1.54183E-6	-47.217038
1.541875E-6	-47.21475
1.54192E-6	-47.207895
1.541965E-6	-47.212464
1.54201E-6	-47.171514
1.542055E-6	-47.160207
1.5421E-6	-47.135435
1.542145E-6	-47.130946
1.54219E-6	-47.126462
1.542235E-6	-47.13319
1.54228E-6	-47.130946
1.542325E-6	-47.14893
1.54237E-6	-47.126462
1.542415E-6	-47.142177
1.54246E-6	-47.155693
1.542505E-6	-47.146678
1.54255E-6	-47.155693
1.542595E-6	-47.142177
1.54264E-6	-47.126462
1.542685E-6	-47.137681
1.54273E-6	-47.126462
1.542775E-6	-47.10634
1.54282E-6	-47.086311
1.542865E-6	-47.046529
1.54291E-6	-47.057543
1.542955E-6	-47.066374
1.543E-6	-47.048729
1.543045E-6	-47.048729
1.54309E-6	-47.042131
1.543135E-6	-47.039933
1.54318E-6	-47.061956
1.543225E-6	-47.10411
1.54327E-6	-47.115272
1.543315E-6	-47.086311
1.54336E-6	-47.090754
1.543405E-6	-47.077439
1.54345E-6	-47.068585
1.543495E-6	-47.092978
1.54354E-6	-47.07301
1.543585E-6	-47.064165
1.54363E-6	-47.020208
1.543675E-6	-47.020208
1.54372E-6	-47.013652
1.543765E-6	-47.026773
1.54381E-6	-47.037737
1.543855E-6	-47.022395
1.5439E-6	-47.037737
1.543945E-6	-47.050931
1.54399E-6	-47.066374
1.544035E-6	-47.070797
1.54408E-6	-47.090754
1.544125E-6	-47.068585
1.54417E-6	-47.066374
1.544215E-6	-47.070797
1.54426E-6	-47.088532
1.544305E-6	-47.088532
1.54435E-6	-47.059749
1.544395E-6	-47.033348
1.54444E-6	-47.020208
1.544485E-6	-47.039933
1.54453E-6	-47.026773
1.544575E-6	-47.018021
1.54462E-6	-47.053134
1.544665E-6	-47.022395
1.54471E-6	-47.039933
1.544755E-6	-47.066374
1.5448E-6	-47.10411
1.544845E-6	-47.110804
1.54489E-6	-47.115272
1.544935E-6	-47.097427
1.54498E-6	-47.113037
1.545025E-6	-47.090754
1.54507E-6	-47.024583
1.545115E-6	-44.869156
1.54516E-6	-37.196493
1.545205E-6	-32.815814
1.54525E-6	-30.894823
1.545295E-6	-30.466269
1.54534E-6	-30.3711
1.545385E-6	-30.366845
1.54543E-6	-30.364483
1.545475E-6	-30.808696
1.54552E-6	-32.921744
1.545565E-6	-37.81202
1.54561E-6	-44.512422
1.545655E-6	-46.821455
1.5457E-6	-47.068585
1.545745E-6	-47.124222
1.54579E-6	-47.160207
1.545835E-6	-47.155693
1.54588E-6	-47.16925
1.545925E-6	-47.153437
1.54597E-6	-47.137681
1.546015E-6	-47.110804
1.54606E-6	-47.119745
1.546105E-6	-47.119745
1.54615E-6	-47.126462
1.546195E-6	-47.119745
1.54624E-6	-47.115272
1.546285E-6	-47.135435
1.54633E-6	-47.160207
1.546375E-6	-47.20105
1.54642E-6	-47.20105
1.546465E-6	-47.205612
1.54651E-6	-47.223908
1.546555E-6	-47.223908
1.5466E-6	-47.228494
1.546645E-6	-47.235382
1.54669E-6	-47.228494
1.546735E-6	-47.219327
1.54678E-6	-47.20105
1.546825E-6	-47.194216
1.54687E-6	-47.203331
1.546915E-6	-47.194216
1.54696E-6	-47.189666
1.547005E-6	-47.194216
1.54705E-6	-47.212464
1.547095E-6	-47.2262
1.54714E-6	-47.246886
1.547185E-6	-47.272304
1.54723E-6	-47.290884
1.547275E-6	-47.293212
1.54732E-6	-47.307206
1.547365E-6	-47.300203
1.54741E-6	-47.307206
1.547455E-6	-47.295541
1.5475E-6	-47.300203
1.547545E-6	-47.300203
1.54759E-6	-47.276942
1.547635E-6	-47.274622
1.54768E-6	-47.265357
1.547725E-6	-47.258422
1.54777E-6	-47.267672
1.547815E-6	-47.283907
1.54786E-6	-47.297871
1.547905E-6	-47.304871
1.54795E-6	-47.32359
1.547995E-6	-47.342391
1.54804E-6	-47.351822
1.548085E-6	-47.377863
1.54813E-6	-47.404061
1.548175E-6	-47.380238
1.54822E-6	-47.375489
1.548265E-6	-47.380238
1.54831E-6	-47.382615
1.548355E-6	-47.370745
1.5484E-6	-47.356545
1.548445E-6	-47.347104
1.54849E-6	-47.330631
1.548535E-6	-47.340036
1.54858E-6	-47.337683
1.548625E-6	-47.363639
1.54867E-6	-47.356545
1.548715E-6	-47.368375
1.54876E-6	-47.384992
1.548805E-6	-47.399286
1.54885E-6	-47.432823
1.548895E-6	-47.432823
1.54894E-6	-47.430418
1.548985E-6	-47.430418
1.54903E-6	-47.430418
1.549075E-6	-47.430418
1.54912E-6	-47.430418
1.549165E-6	-47.413627
1.54921E-6	-47.396901
1.549255E-6	-47.384992
1.5493E-6	-47.387371
1.549345E-6	-47.384992
1.54939E-6	-47.387371
1.549435E-6	-47.394516
1.54948E-6	-47.416022
1.549525E-6	-47.413627
1.54957E-6	-47.423214
1.549615E-6	-47.459355
1.54966E-6	-47.478754
1.549705E-6	-47.478754
1.54975E-6	-47.481185
1.549795E-6	-47.469044
1.54984E-6	-47.416022
1.549885E-6	-47.157949
1.54993E-6	-41.901038
1.549975E-6	-34.436975
1.55002E-6	-31.105302
1.550065E-6	-30.07579
1.55011E-6	-29.892761
1.550155E-6	-29.875846
1.5502E-6	-29.858997
1.550245E-6	-29.913998
1.55029E-6	-30.782095
1.550335E-6	-33.833145
1.55038E-6	-39.892761
1.550425E-6	-46.245193
1.55047E-6	-47.32359
1.550515E-6	-47.46662
1.55056E-6	-47.481185
1.550605E-6	-47.4958
1.55065E-6	-47.508016
1.550695E-6	-47.512913
1.55074E-6	-47.490923
1.550785E-6	-47.461776
1.55083E-6	-47.435228
1.550875E-6	-47.435228
1.55092E-6	-47.437635
1.550965E-6	-47.444863
1.55101E-6	-47.437635
1.551055E-6	-47.425614
1.5511E-6	-47.432823
1.551145E-6	-47.46662
1.55119E-6	-47.503126
1.551235E-6	-47.522722
1.55128E-6	-47.515363
1.551325E-6	-47.508016
1.55137E-6	-47.500682
1.551415E-6	-47.490923
1.55146E-6	-47.515363
1.551505E-6	-47.512913
1.55155E-6	-47.478754
1.551595E-6	-47.444863
1.55164E-6	-47.425614
1.551685E-6	-47.437635
1.55173E-6	-47.442452
1.551775E-6	-47.435228
1.55182E-6	-47.442452
1.551865E-6	-47.432823
1.55191E-6	-47.430418
1.551955E-6	-47.454519
1.552E-6	-47.500682
1.552045E-6	-47.525177
1.55209E-6	-47.512913
1.552135E-6	-47.50557
1.55218E-6	-47.512913
1.552225E-6	-47.520267
1.55227E-6	-47.530093
1.552315E-6	-47.503126
1.55236E-6	-47.461776
1.552405E-6	-47.420815
1.55245E-6	-47.423214
1.552495E-6	-47.430418
1.55254E-6	-47.430418
1.552585E-6	-47.430418
1.55263E-6	-47.411234
1.552675E-6	-47.420815
1.55272E-6	-47.437635
1.552765E-6	-47.469044
1.55281E-6	-47.50557
1.552855E-6	-47.4958
1.5529E-6	-47.503126
1.552945E-6	-47.490923
1.55299E-6	-47.50557
1.553035E-6	-47.508016
1.55308E-6	-47.512913
1.553125E-6	-47.481185
1.55317E-6	-47.449688
1.553215E-6	-47.432823
1.55326E-6	-47.413627
1.553305E-6	-47.411234
1.55335E-6	-47.404061
1.553395E-6	-47.408842
1.55344E-6	-47.401673
1.553485E-6	-47.401673
1.55353E-6	-47.425614
1.553575E-6	-47.459355
1.55362E-6	-47.486051
1.553665E-6	-47.478754
1.55371E-6	-47.490923
1.553755E-6	-47.498241
1.5538E-6	-47.498241
1.553845E-6	-47.498241
1.55389E-6	-47.50557
1.553935E-6	-47.469044
1.55398E-6	-47.442452
1.554025E-6	-47.416022
1.55407E-6	-47.423214
1.554115E-6	-47.416022
1.55416E-6	-47.406451
1.554205E-6	-47.394516
1.55425E-6	-47.404061
1.554295E-6	-47.396901
1.55434E-6	-47.428016
1.554385E-6	-47.459355
1.55443E-6	-47.478754
1.554475E-6	-47.483618
1.55452E-6	-47.4958
1.554565E-6	-47.50557
1.55461E-6	-47.490923
1.554655E-6	-47.483618
1.5547E-6	-47.488487
1.554745E-6	-47.454519
1.55479E-6	-47.437635
1.554835E-6	-47.423214
1.55488E-6	-47.396901
1.554925E-6	-47.384992
1.55497E-6	-47.394516
1.555015E-6	-47.384992
1.55506E-6	-47.392133
1.555105E-6	-47.399286
1.55515E-6	-47.418418
1.555195E-6	-47.444863
1.55524E-6	-47.461776
1.555285E-6	-47.473897
1.55533E-6	-47.486051
1.555375E-6	-47.503126
1.55542E-6	-47.490923
1.555465E-6	-47.481185
1.55551E-6	-47.481185
1.555555E-6	-47.461776
1.5556E-6	-47.430418
1.555645E-6	-47.423214
1.55569E-6	-47.406451
1.555735E-6	-47.396901
1.55578E-6	-47.399286
1.555825E-6	-47.389752
1.55587E-6	-47.392133
1.555915E-6	-47.401673
1.55596E-6	-47.416022
1.556005E-6	-47.452103
1.55605E-6	-47.486051
1.556095E-6	-47.503126
1.55614E-6	-47.50557
1.556185E-6	-47.50557
1.55623E-6	-47.50557
1.556275E-6	-47.4958
1.55632E-6	-47.500682
1.556365E-6	-47.4958
1.55641E-6	-47.447275
1.556455E-6	-47.425614
1.5565E-6	-47.408842
1.556545E-6	-47.416022
1.55659E-6	-47.418418
1.556635E-6	-47.432823
1.55668E-6	-47.435228
1.556725E-6	-47.428016
1.55677E-6	-47.459355
1.556815E-6	-47.486051
1.55686E-6	-47.532553
1.556905E-6	-47.539941
1.55695E-6	-47.559704
1.556995E-6	-47.542406
1.55704E-6	-47.539941
1.557085E-6	-47.554755
1.55713E-6	-47.557229
1.557175E-6	-47.539941
1.55722E-6	-47.515363
1.557265E-6	-47.486051
1.55731E-6	-47.469044
1.557355E-6	-47.478754
1.5574E-6	-47.490923
1.557445E-6	-47.500682
1.55749E-6	-47.500682
1.557535E-6	-47.510464
1.55758E-6	-47.535014
1.557625E-6	-47.587026
1.55767E-6	-47.614521
1.557715E-6	-47.629592
1.55776E-6	-47.632109
1.557805E-6	-47.629592
1.55785E-6	-47.624563
1.557895E-6	-47.639669
1.55794E-6	-47.664962
1.557985E-6	-47.642191
1.55803E-6	-47.599502
1.558075E-6	-47.579558
1.55812E-6	-47.574586
1.558165E-6	-47.587026
1.55821E-6	-47.604503
1.558255E-6	-47.599502
1.5583E-6	-47.609509
1.558345E-6	-47.597004
1.55839E-6	-47.639669
1.558435E-6	-47.700623
1.55848E-6	-47.739159
1.558525E-6	-47.762445
1.55857E-6	-47.75726
1.558615E-6	-47.770236
1.55866E-6	-47.770236
1.558705E-6	-47.798919
1.55875E-6	-47.809397
1.558795E-6	-47.78325
1.55884E-6	-47.744323
1.558885E-6	-47.728849
1.55893E-6	-47.731424
1.558975E-6	-47.739159
1.55902E-6	-47.754669
1.559065E-6	-47.770236
1.55911E-6	-47.765041
1.559155E-6	-47.788467
1.5592E-6	-47.81202
1.559245E-6	-47.87546
1.55929E-6	-47.93444
1.559335E-6	-47.93444
1.55938E-6	-47.94525
1.559425E-6	-47.947956
1.55947E-6	-47.977842
1.559515E-6	-47.988761
1.55956E-6	-47.991495
1.559605E-6	-47.977842
1.55965E-6	-47.939841
1.559695E-6	-47.92635
1.55974E-6	-47.94525
1.559785E-6	-47.966951
1.55983E-6	-47.975117
1.559875E-6	-47.988761
1.55992E-6	-47.994231
1.559965E-6	-48.016179
1.56001E-6	-48.06319
1.560055E-6	-48.124793
1.5601E-6	-48.155925
1.560145E-6	-48.178708
1.56019E-6	-48.181564
1.560235E-6	-48.195874
1.56028E-6	-48.236193
1.560325E-6	-48.239087
1.56037E-6	-48.241984
1.560415E-6	-48.244882
1.56046E-6	-48.193008
1.560505E-6	-48.193008
1.56055E-6	-48.215987
1.560595E-6	-48.22175
1.56064E-6	-48.239087
1.560685E-6	-48.259402
1.56073E-6	-48.268137
1.560775E-6	-48.288588
1.56082E-6	-48.326827
1.560865E-6	-48.395315
1.56091E-6	-48.437538
1.560955E-6	-48.449678
1.561E-6	-48.4649
1.561045E-6	-48.507809
1.56109E-6	-48.513973
1.561135E-6	-48.529423
1.56118E-6	-48.544928
1.561225E-6	-48.529423
1.56127E-6	-48.520147
1.561315E-6	-48.507809
1.56136E-6	-48.517059
1.561405E-6	-48.529423
1.56145E-6	-48.544928
1.561495E-6	-48.566729
1.56154E-6	-48.569852
1.561585E-6	-48.616973
1.56163E-6	-48.648673
1.561675E-6	-48.706324
1.56172E-6	-48.758219
1.561765E-6	-48.784402
1.56181E-6	-48.807441
1.561855E-6	-48.837244
1.5619E-6	-48.850556
1.561945E-6	-48.867253
1.56199E-6	-48.884015
1.562035E-6	-48.880657
1.56208E-6	-48.860566
1.562125E-6	-48.867253
1.56217E-6	-48.8706
1.562215E-6	-48.87395
1.56226E-6	-48.894103
1.562305E-6	-48.90759
1.56235E-6	-48.948306
1.562395E-6	-48.968807
1.56244E-6	-49.013563
1.562485E-6	-49.069287
1.56253E-6	-49.104481
1.562575E-6	-49.150664
1.56262E-6	-49.182927
1.562665E-6	-49.20457
1.56271E-6	-49.233596
1.562755E-6	-49.237237
1.5628E-6	-49.262816
1.562845E-6	-49.273825
1.56289E-6	-49.259153
1.562935E-6	-49.251836
1.56298E-6	-49.262816
1.563025E-6	-49.28118
1.56307E-6	-49.28118
1.563115E-6	-49.314431
1.56316E-6	-49.34047
1.563205E-6	-49.37418
1.56325E-6	-49.41574
1.563295E-6	-49.465374
1.56334E-6	-49.503944
1.563385E-6	-49.562449
1.56343E-6	-49.601894
1.563475E-6	-49.629721
1.56352E-6	-49.641702
1.563565E-6	-49.641702
1.56361E-6	-49.657727
1.563655E-6	-49.685915
1.5637E-6	-49.689957
1.563745E-6	-49.681877
1.56379E-6	-49.669786
1.563835E-6	-49.689957
1.56388E-6	-49.702105
1.563925E-6	-49.746941
1.56397E-6	-49.788107
1.564015E-6	-49.792245
1.56406E-6	-49.825493
1.564105E-6	-49.888526
1.56415E-6	-49.943906
1.564195E-6	-50.01
1.56424E-6	-50.034008
1.564285E-6	-50.053749
1.56433E-6	-50.058589
1.564375E-6	-50.078001
1.56442E-6	-50.107727
1.564465E-6	-50.146184
1.56451E-6	-50.126466
1.564555E-6	-50.106392
1.5646E-6	-50.106392
1.564645E-6	-50.11664
1.56469E-6	-50.165993
1.564735E-6	-50.185892
1.56478E-6	-50.2365
1.564825E-6	-50.256726
1.56487E-6	-50.297461
1.564915E-6	-50.349395
1.56496E-6	-50.417229
1.565005E-6	-50.470139
1.56505E-6	-50.497325
1.565095E-6	-50.528114
1.56514E-6	-50.544329
1.565185E-6	-50.571985
1.56523E-6	-50.621312
1.565275E-6	-50.64896
1.56532E-6	-50.621312
1.565365E-6	-50.631848
1.56541E-6	-50.615804
1.565455E-6	-50.63788
1.5655E-6	-50.671205
1.565545E-6	-50.704789
1.56559E-6	-50.727323
1.565635E-6	-50.738634
1.56568E-6	-50.789902
1.565725E-6	-50.834934
1.56577E-6	-50.910863
1.565815E-6	-50.970186
1.56586E-6	-51.006173
1.565905E-6	-51.024279
1.56595E-6	-51.030331
1.565995E-6	-51.072934
1.56604E-6	-51.115958
1.566085E-6	-51.140737
1.56613E-6	-51.140737
1.566175E-6	-51.109786
1.56622E-6	-51.115958
1.566265E-6	-51.12833
1.56631E-6	-51.159981
1.566355E-6	-51.216506
1.5664E-6	-51.235512
1.566445E-6	-51.241866
1.56649E-6	-51.286022
1.566535E-6	-51.331812
1.56658E-6	-51.410419
1.566625E-6	-51.463626
1.56667E-6	-51.524273
1.566715E-6	-51.531065
1.56676E-6	-51.538485
1.566805E-6	-51.57266
1.56685E-6	-51.627905
1.566895E-6	-51.641193
1.56694E-6	-51.637392
1.566985E-6	-51.609621
1.56703E-6	-51.624116
1.567075E-6	-51.651979
1.56712E-6	-51.687063
1.567165E-6	-51.722431
1.56721E-6	-51.728893
1.567255E-6	-51.743792
1.5673E-6	-51.78683
1.567345E-6	-51.852199
1.56739E-6	-51.940915
1.567435E-6	-51.990081
1.56748E-6	-51.990081
1.567525E-6	-52.028017
1.56757E-6	-52.043285
1.567615E-6	-52.097148
1.56766E-6	-52.152401
1.567705E-6	-52.183882
1.56775E-6	-52.17599
1.567795E-6	-52.17599
1.56784E-6	-52.239529
1.567885E-6	-52.223557
1.56793E-6	-52.25556
1.567975E-6	-52.300322
1.56802E-6	-52.324731
1.568065E-6	-52.374715
1.56811E-6	-52.398792
1.568155E-6	-52.474906
1.5682E-6	-52.577463
1.568245E-6	-52.63046
1.56829E-6	-52.66562
1.568335E-6	-52.718898
1.56838E-6	-52.745784
1.568425E-6	-52.814983
1.56847E-6	-52.843309
1.568515E-6	-52.89798
1.56856E-6	-52.926854
1.568605E-6	-52.955063
1.56865E-6	-52.955063
1.568695E-6	-53.040807
1.56874E-6	-53.101586
1.568785E-6	-53.148855
1.56883E-6	-53.18397
1.568875E-6	-53.233978
1.56892E-6	-53.297541
1.568965E-6	-53.345128
1.56901E-6	-53.409399
1.569055E-6	-53.467875
1.5691E-6	-53.506651
1.569145E-6	-53.572388
1.56919E-6	-53.621102
1.569235E-6	-53.677452
1.56928E-6	-53.722246
1.569325E-6	-53.760275
1.56937E-6	-53.799681
1.569415E-6	-53.826851
1.56946E-6	-53.901922
1.569505E-6	-53.929741
1.56955E-6	-53.963145
1.569595E-6	-53.997897
1.56964E-6	-54.035129
1.569685E-6	-54.080454
1.56973E-6	-54.133002
1.569775E-6	-54.169146
1.56982E-6	-54.212462
1.569865E-6	-54.249277
1.56991E-6	-54.278257
1.569955E-6	-54.336804
1.57E-6	-54.374692
