Wavelength (nm)	Power (dBm)
1.525E-6	-76.625407
1.525045E-6	-76.751005
1.52509E-6	-77.354183
1.525135E-6	-79.136402
1.52518E-6	-81.806535
1.525225E-6	-84.581712
1.52527E-6	-88.820662
1.525315E-6	-86.792308
1.52536E-6	-89.240882
1.525405E-6	-90.5061
1.52545E-6	-86.076548
1.525495E-6	-82.645608
1.52554E-6	-78.563608
1.525585E-6	-76.474316
1.52563E-6	-75.407583
1.525675E-6	-75.306199
1.52572E-6	-75.082182
1.525765E-6	-74.854522
1.52581E-6	-75.087784
1.525855E-6	-75.388017
1.5259E-6	-76.683703
1.525945E-6	-79.649707
1.52599E-6	-82.938799
1.526035E-6	-84.914703
1.52608E-6	-89.779843
1.526125E-6	-88.300318
1.52617E-6	-88.038238
1.526215E-6	-87.473897
1.52626E-6	-82.418454
1.526305E-6	-77.557229
1.52635E-6	-75.108856
1.526395E-6	-74.139756
1.52644E-6	-74.231981
1.526485E-6	-73.766473
1.52653E-6	-73.703866
1.526575E-6	-73.721223
1.52662E-6	-74.286406
1.526665E-6	-75.225893
1.52671E-6	-78.032713
1.526755E-6	-80.794071
1.5268E-6	-84.73144
1.526845E-6	-87.363639
1.52689E-6	-86.122543
1.526935E-6	-120
1.52698E-6	-93.831046
1.527025E-6	-85.162701
1.52707E-6	-76.311555
1.527115E-6	-74.173686
1.52716E-6	-73.042557
1.527205E-6	-72.881928
1.52725E-6	-72.690563
1.527295E-6	-72.79262
1.52734E-6	-72.68653
1.527385E-6	-72.596373
1.52743E-6	-73.547743
1.527475E-6	-76.281935
1.52752E-6	-79.090369
1.527565E-6	-83.528127
1.52761E-6	-87.018021
1.527655E-6	-89.175737
1.5277E-6	-86.846595
1.527745E-6	-88.344589
1.52779E-6	-85.58462
1.527835E-6	-78.477117
1.52788E-6	-73.977229
1.527925E-6	-72.304012
1.52797E-6	-71.996266
1.528015E-6	-71.872203
1.52806E-6	-71.613398
1.528105E-6	-71.806535
1.52815E-6	-71.780936
1.528195E-6	-72.172408
1.52824E-6	-74.041732
1.528285E-6	-77.991495
1.52833E-6	-81.603963
1.528375E-6	-84.496493
1.52842E-6	-88.683813
1.528465E-6	-88.38632
1.52851E-6	-89.961088
1.528555E-6	-87.607005
1.5286E-6	-79.161392
1.528645E-6	-74.20445
1.52869E-6	-72.072582
1.528735E-6	-71.23205
1.52878E-6	-71.153745
1.528825E-6	-71.202162
1.52887E-6	-71.110907
1.528915E-6	-71.159981
1.52896E-6	-71.200444
1.529005E-6	-72.718086
1.52905E-6	-75.678327
1.529095E-6	-79.730584
1.52914E-6	-85.284149
1.529185E-6	-87.157949
1.52923E-6	-87.283907
1.529275E-6	-86.90157
1.52932E-6	-86.22876
1.529365E-6	-80.166895
1.52941E-6	-74.709548
1.529455E-6	-71.794702
1.5295E-6	-70.813407
1.529545E-6	-70.670699
1.52959E-6	-70.553693
1.529635E-6	-70.484197
1.52968E-6	-70.544329
1.529725E-6	-70.570004
1.52977E-6	-71.409819
1.529815E-6	-74.12289
1.52986E-6	-78.820662
1.529905E-6	-83.405592
1.52995E-6	-85.798792
1.529995E-6	-87.87546
1.53004E-6	-86.961562
1.530085E-6	-84.585456
1.53013E-6	-83.262421
1.530175E-6	-76.178028
1.53022E-6	-72.015565
1.530265E-6	-70.73709
1.53031E-6	-70.25166
1.530355E-6	-70.273807
1.5304E-6	-70.213174
1.530445E-6	-70.206793
1.53049E-6	-70.173218
1.530535E-6	-70.740694
1.53058E-6	-72.640819
1.530625E-6	-76.579723
1.53067E-6	-80.869813
1.530715E-6	-84.776862
1.53076E-6	-86.821455
1.530805E-6	-86.041496
1.53085E-6	-89.665762
1.530895E-6	-84.160082
1.53094E-6	-78.353498
1.530985E-6	-72.966226
1.53103E-6	-70.872467
1.531075E-6	-70.275195
1.53112E-6	-70
1.531165E-6	-69.956786
1.53121E-6	-70
1.531255E-6	-69.913998
1.5313E-6	-70.351749
1.531345E-6	-71.427882
1.53139E-6	-74.905286
1.531435E-6	-78.90759
1.53148E-6	-83.673403
1.531525E-6	-87.368375
1.53157E-6	-88.013429
1.531615E-6	-93.943718
1.53166E-6	-84.595454
1.531705E-6	-80.747395
1.53175E-6	-74.330913
1.531795E-6	-71.366771
1.53184E-6	-70.40291
1.531885E-6	-70.135866
1.53193E-6	-70.085967
1.531975E-6	-69.965395
1.53202E-6	-70.006954
1.532065E-6	-70.133178
1.53211E-6	-70.935033
1.532155E-6	-73.281794
1.5322E-6	-77.657359
1.532245E-6	-81.741846
1.53229E-6	-86.029295
1.532335E-6	-96.581699
1.53238E-6	-84.704413
1.532425E-6	-94.08824
1.53247E-6	-83.35452
1.532515E-6	-76.199698
1.53256E-6	-72.3114
1.532605E-6	-70.742239
1.53265E-6	-70.280287
1.532695E-6	-70.259952
1.53274E-6	-70.122891
1.532785E-6	-70.102833
1.53283E-6	-70.190427
1.532875E-6	-70.63436
1.53292E-6	-72.218487
1.532965E-6	-76.181632
1.53301E-6	-80.881502
1.533055E-6	-84.925489
1.5331E-6	-86.771607
1.533145E-6	-86.254349
1.53319E-6	-88.917733
1.533235E-6	-85.40306
1.53328E-6	-80.038387
1.533325E-6	-74.203307
1.53337E-6	-71.557714
1.533415E-6	-70.744816
1.53346E-6	-70.534004
1.533505E-6	-70.651482
1.53355E-6	-70.694075
1.533595E-6	-70.811836
1.53364E-6	-70.91247
1.533685E-6	-71.981848
1.53373E-6	-74.519793
1.533775E-6	-79.586073
1.53382E-6	-83.564486
1.533865E-6	-85.340226
1.53391E-6	-88.87395
1.533955E-6	-88.404328
1.534E-6	-89.574245
1.534045E-6	-83.892334
1.53409E-6	-76.5738
1.534135E-6	-73.033815
1.53418E-6	-71.726954
1.534225E-6	-71.336536
1.53427E-6	-71.276106
1.534315E-6	-71.29479
1.53436E-6	-71.336536
1.534405E-6	-71.589535
1.53445E-6	-72.04398
1.534495E-6	-73.920091
1.53454E-6	-77.718564
1.534585E-6	-81.888273
1.53463E-6	-84.963455
1.534675E-6	-120
1.53472E-6	-84.77295
1.534765E-6	-93.007695
1.53481E-6	-87.002748
1.534855E-6	-79.93962
1.5349E-6	-75.210009
1.534945E-6	-72.798407
1.53499E-6	-72.044676
1.535035E-6	-72.076083
1.53508E-6	-72.096445
1.535125E-6	-72.066986
1.53517E-6	-72.181011
1.535215E-6	-72.385984
1.53526E-6	-73.367704
1.535305E-6	-76.029295
1.53535E-6	-79.888526
1.535395E-6	-85.686362
1.53544E-6	-87.972393
1.535485E-6	-87.423214
1.53553E-6	-87.121983
1.535575E-6	-86.145725
1.53562E-6	-83.748934
1.535665E-6	-77.447275
1.53571E-6	-74.186193
1.535755E-6	-73.013776
1.5358E-6	-72.618539
1.535845E-6	-72.670436
1.53589E-6	-72.581396
1.535935E-6	-72.762161
1.53598E-6	-72.903061
1.536025E-6	-73.505678
1.53607E-6	-75.474469
1.536115E-6	-78.501653
1.53616E-6	-81.769825
1.536205E-6	-88.107905
1.53625E-6	-87.539941
1.536295E-6	-88.810742
1.53634E-6	-86.548224
1.536385E-6	-86.651443
1.53643E-6	-80.933418
1.536475E-6	-76.371407
1.53652E-6	-73.833145
1.536565E-6	-73.216638
1.53661E-6	-73.224843
1.536655E-6	-73.469805
1.5367E-6	-73.203904
1.536745E-6	-73.089185
1.53679E-6	-73.571399
1.536835E-6	-74.639468
1.53688E-6	-77.20105
1.536925E-6	-80.992506
1.53697E-6	-85.237482
1.537015E-6	-88.428456
1.53706E-6	-87.288557
1.537105E-6	-88.127614
1.53715E-6	-88.210231
1.537195E-6	-84.579219
1.53724E-6	-79.122186
1.537285E-6	-75.237482
1.53733E-6	-73.923306
1.537375E-6	-73.361107
1.53742E-6	-73.40369
1.537465E-6	-73.717133
1.53751E-6	-73.644157
1.537555E-6	-73.831046
1.5376E-6	-73.938337
1.537645E-6	-76.011923
1.53769E-6	-78.541823
1.537735E-6	-82.561768
1.53778E-6	-85.503673
1.537825E-6	-86.567884
1.53787E-6	-92.404077
1.537915E-6	-89.922522
1.53796E-6	-88.41336
1.538005E-6	-81.756789
1.53805E-6	-76.655462
1.538095E-6	-74.726279
1.53814E-6	-73.8122
1.538185E-6	-73.541849
1.53823E-6	-73.651199
1.538275E-6	-73.722246
1.53832E-6	-73.672391
1.538365E-6	-73.907258
1.53841E-6	-74.795165
1.538455E-6	-78.141746
1.5385E-6	-81.185012
1.538545E-6	-84.348608
1.53859E-6	-86.811023
1.538635E-6	-90.968015
1.53868E-6	-86.183435
1.538725E-6	-87.670039
1.53877E-6	-84.761235
1.538815E-6	-79.582127
1.53886E-6	-75.460704
1.538905E-6	-73.895528
1.53895E-6	-73.647174
1.538995E-6	-73.455347
1.53904E-6	-73.868985
1.539085E-6	-73.662287
1.53913E-6	-73.939413
1.539175E-6	-74.177093
1.53922E-6	-75.294425
1.539265E-6	-79.775716
1.53931E-6	-83.265183
1.539355E-6	-88.651856
1.5394E-6	-86.976691
1.539445E-6	-89.50782
1.53949E-6	-86.434006
1.539535E-6	-93.419886
1.53958E-6	-82.908997
1.539625E-6	-76.946486
1.53967E-6	-74.676279
1.539715E-6	-73.837346
1.53976E-6	-73.534002
1.539805E-6	-73.343252
1.53985E-6	-73.384713
1.539895E-6	-73.650192
1.53994E-6	-73.530085
1.539985E-6	-74.45632
1.54003E-6	-77.015836
1.540075E-6	-79.726504
1.54012E-6	-83.398938
1.540165E-6	-88.175853
1.54021E-6	-86.942188
1.540255E-6	-89.689957
1.5403E-6	-88.768019
1.540345E-6	-88.210231
1.54039E-6	-79.593977
1.540435E-6	-75.291487
1.54048E-6	-73.906191
1.540525E-6	-73.40369
1.54057E-6	-73.144374
1.540615E-6	-73.350761
1.54066E-6	-73.174037
1.540705E-6	-73.318005
1.54075E-6	-73.528127
1.540795E-6	-75.104634
1.54084E-6	-78.282735
1.540885E-6	-82.05512
1.54093E-6	-86.7305
1.540975E-6	-87.207895
1.54102E-6	-88.38632
1.541065E-6	-88.955129
1.54111E-6	-87.999707
1.541155E-6	-83.094495
1.5412E-6	-77.077439
1.541245E-6	-74.340342
1.54129E-6	-73.347944
1.541335E-6	-73.038184
1.54138E-6	-72.902214
1.541425E-6	-72.868456
1.54147E-6	-72.830789
1.541515E-6	-73.137213
1.54156E-6	-73.982659
1.541605E-6	-76.248853
1.54165E-6	-79.013563
1.541695E-6	-84.955291
1.54174E-6	-86.305986
1.541785E-6	-88.59492
1.54183E-6	-87.246886
1.541875E-6	-85.700863
1.54192E-6	-86.560009
1.541965E-6	-80.26595
1.54201E-6	-75.307673
1.542055E-6	-73.331078
1.5421E-6	-72.865935
1.542145E-6	-72.867615
1.54219E-6	-72.776952
1.542235E-6	-72.653602
1.54228E-6	-72.905604
1.542325E-6	-72.813323
1.54237E-6	-73.994627
1.542415E-6	-77.162466
1.54246E-6	-80.436394
1.542505E-6	-84.079343
1.54255E-6	-85.657505
1.542595E-6	-89.913998
1.54264E-6	-87.31422
1.542685E-6	-89.219058
1.54273E-6	-84.148778
1.542775E-6	-77.14893
1.54282E-6	-74.265482
1.542865E-6	-72.895441
1.54291E-6	-72.469534
1.542955E-6	-72.624098
1.543E-6	-72.398038
1.543045E-6	-72.531324
1.54309E-6	-72.502637
1.543135E-6	-72.975695
1.54318E-6	-74.644527
1.543225E-6	-78.38632
1.54327E-6	-82.494145
1.543315E-6	-84.968906
1.54336E-6	-87.203331
1.543405E-6	-86.968039
1.54345E-6	-90.434954
1.543495E-6	-85.373026
1.54354E-6	-81.853529
1.543585E-6	-76.076548
1.54363E-6	-73.3762
1.543675E-6	-72.748237
1.54372E-6	-72.387489
1.543765E-6	-72.389747
1.54381E-6	-72.231536
1.543855E-6	-72.34555
1.5439E-6	-72.620127
1.543945E-6	-73.130064
1.54399E-6	-75.83859
1.544035E-6	-79.237237
1.54408E-6	-83.908326
1.544125E-6	-86.534514
1.54417E-6	-87.212464
1.544215E-6	-87.798919
1.54426E-6	-93.78097
1.544305E-6	-84.252744
1.54435E-6	-78.958544
1.544395E-6	-74.80172
1.54444E-6	-72.970528
1.544485E-6	-72.586908
1.54453E-6	-72.321024
1.544575E-6	-72.107014
1.54462E-6	-72.363474
1.544665E-6	-72.357491
1.54471E-6	-72.569608
1.544755E-6	-73.70081
1.5448E-6	-76.701955
1.544845E-6	-79.875846
1.54489E-6	-87.423214
1.544935E-6	-84.255057
1.54498E-6	-82.326215
1.545025E-6	-81.203881
1.54507E-6	-73.147062
1.545115E-6	-60.2512
1.54516E-6	-46.538427
1.545205E-6	-39.991323
1.54525E-6	-37.838341
1.545295E-6	-37.31422
1.54534E-6	-37.251497
1.545385E-6	-37.157949
1.54543E-6	-37.219327
1.545475E-6	-37.599502
1.54552E-6	-39.641702
1.545565E-6	-44.633153
1.54561E-6	-53.941565
1.545655E-6	-62.816644
1.5457E-6	-69.905491
1.545745E-6	-76.831912
1.54579E-6	-79.92679
1.545835E-6	-83.451499
1.54588E-6	-84.615519
1.545925E-6	-81.206747
1.54597E-6	-76.256183
1.546015E-6	-73.220282
1.54606E-6	-72.21704
1.546105E-6	-72.325473
1.54615E-6	-72.272384
1.546195E-6	-72.127521
1.54624E-6	-72.204757
1.546285E-6	-72.232262
1.54633E-6	-72.970528
1.546375E-6	-75.223001
1.54642E-6	-79.593977
1.546465E-6	-82.750691
1.54651E-6	-86.478175
1.546555E-6	-86.283781
1.5466E-6	-88.285661
1.546645E-6	-88.541823
1.54669E-6	-86.38461
1.546735E-6	-79.833845
1.54678E-6	-74.859838
1.546825E-6	-72.798407
1.54687E-6	-72.380722
1.546915E-6	-72.329926
1.54696E-6	-72.300322
1.547005E-6	-72.300322
1.54705E-6	-72.157394
1.547095E-6	-72.340336
1.54714E-6	-73.270713
1.547185E-6	-75.939711
1.54723E-6	-79.669786
1.547275E-6	-84.698003
1.54732E-6	-87.097427
1.547365E-6	-87.325936
1.54741E-6	-88.256494
1.547455E-6	-87.101882
1.5475E-6	-84.026339
1.547545E-6	-78.712777
1.54759E-6	-74.019759
1.547635E-6	-72.597163
1.54768E-6	-72.30475
1.547725E-6	-72.02871
1.54777E-6	-72.111955
1.547815E-6	-72.230084
1.54786E-6	-72.082392
1.547905E-6	-72.429838
1.54795E-6	-73.782008
1.547995E-6	-77.572102
1.54804E-6	-80.852339
1.548085E-6	-86.165437
1.54813E-6	-87.267672
1.548175E-6	-86.78816
1.54822E-6	-87.81202
1.548265E-6	-87.031155
1.54831E-6	-82.603486
1.548355E-6	-76.933606
1.5484E-6	-73.753055
1.548445E-6	-72.529768
1.54849E-6	-72.194667
1.548535E-6	-72.161679
1.54858E-6	-72.12823
1.548625E-6	-71.972263
1.54867E-6	-72.138877
1.548715E-6	-72.582183
1.54876E-6	-74.49894
1.548805E-6	-78.585502
1.54885E-6	-82.380722
1.548895E-6	-86.779876
1.54894E-6	-87.160207
1.548985E-6	-87.731424
1.54903E-6	-90.711435
1.549075E-6	-86.322715
1.54912E-6	-82.043285
1.549165E-6	-76.03452
1.54921E-6	-73.397038
1.549255E-6	-72.387489
1.5493E-6	-72.240257
1.549345E-6	-72.109837
1.54939E-6	-72.265061
1.549435E-6	-72.084497
1.54948E-6	-72.106308
1.549525E-6	-73.022477
1.54957E-6	-75.148467
1.549615E-6	-79.601894
1.54966E-6	-82.638426
1.549705E-6	-84.327383
1.54975E-6	-86.530605
1.549795E-6	-82.901367
1.54984E-6	-76.767479
1.549885E-6	-68.8706
1.54993E-6	-52.216317
1.549975E-6	-42.035644
1.55002E-6	-38.425432
1.550065E-6	-37.2262
1.55011E-6	-36.994045
1.550155E-6	-37.004927
1.5502E-6	-37.011469
1.550245E-6	-37.050931
1.55029E-6	-37.843624
1.550335E-6	-40.73709
1.55038E-6	-47.619539
1.550425E-6	-58.410347
1.55047E-6	-66.085356
1.550515E-6	-72.507276
1.55056E-6	-78.620133
1.550605E-6	-81.335945
1.55065E-6	-82.985184
1.550695E-6	-83.304972
1.55074E-6	-78.972234
1.550785E-6	-74.604221
1.55083E-6	-72.713216
1.550875E-6	-72.037033
1.55092E-6	-72.111249
1.550965E-6	-71.722431
1.55101E-6	-72.115488
1.551055E-6	-71.886261
1.5511E-6	-72.15454
1.551145E-6	-73.231236
1.55119E-6	-76.122543
1.551235E-6	-79.763361
1.55128E-6	-84.441803
1.551325E-6	-85.001755
1.55137E-6	-86.111886
1.551415E-6	-87.587026
1.55146E-6	-91.652615
1.551505E-6	-82.951634
1.55155E-6	-78.359447
1.551595E-6	-73.948027
1.55164E-6	-72.335128
1.551685E-6	-71.914514
1.55173E-6	-71.855526
1.551775E-6	-71.817081
1.55182E-6	-71.850868
1.551865E-6	-71.834936
1.55191E-6	-72.039116
1.551955E-6	-73.527149
1.552E-6	-76.480105
1.552045E-6	-80.419142
1.55209E-6	-85.678327
1.552135E-6	-86.893067
1.55218E-6	-92.269453
1.552225E-6	-86.281935
1.55227E-6	-87.942545
1.552315E-6	-82.979143
1.55236E-6	-76.9897
1.552405E-6	-73.628106
1.55245E-6	-72.062096
1.552495E-6	-71.954517
1.55254E-6	-71.782245
1.552585E-6	-71.85486
1.55263E-6	-71.756789
1.552675E-6	-71.565803
1.55272E-6	-72.136746
1.552765E-6	-73.847867
1.55281E-6	-77.10411
1.552855E-6	-81.433919
1.5529E-6	-86.903698
1.552945E-6	-86.897316
1.55299E-6	-86.293019
1.553035E-6	-90.145286
1.55308E-6	-85.795491
1.553125E-6	-82.799234
1.55317E-6	-75.692801
1.553215E-6	-73.019865
1.55326E-6	-71.852864
1.553305E-6	-71.711468
1.55335E-6	-71.607734
1.553395E-6	-71.77309
1.55344E-6	-71.629801
1.553485E-6	-71.613398
1.55353E-6	-72.211255
1.553575E-6	-75.040396
1.55362E-6	-78.557372
1.553665E-6	-81.751585
1.55371E-6	-85.434821
1.553755E-6	-87.515363
1.5538E-6	-84.791236
1.553845E-6	-81.069599
1.55389E-6	-87.022395
1.553935E-6	-81.767214
1.55398E-6	-75.523769
1.554025E-6	-72.870979
1.55407E-6	-71.709537
1.554115E-6	-71.694113
1.55416E-6	-71.637392
1.554205E-6	-71.533537
1.55425E-6	-71.545299
1.554295E-6	-71.683861
1.55434E-6	-72.195387
1.554385E-6	-74.410516
1.55443E-6	-77.574586
1.554475E-6	-82.246809
1.55452E-6	-86.445485
1.554565E-6	-88.06319
1.55461E-6	-85.495969
1.554655E-6	-87.217038
1.5547E-6	-88.513973
1.554745E-6	-81.761998
1.55479E-6	-74.913356
1.554835E-6	-72.416938
1.55488E-6	-71.717269
1.554925E-6	-71.548399
1.55497E-6	-71.421852
1.555015E-6	-71.383461
1.55506E-6	-71.381073
1.555105E-6	-71.42366
1.55515E-6	-72.252641
1.555195E-6	-74.519793
1.55524E-6	-78.610661
1.555285E-6	-82.561768
1.55533E-6	-84.262004
1.555375E-6	-88.474059
1.55542E-6	-88.33866
1.555465E-6	-81.294205
1.55551E-6	-85.294425
1.555555E-6	-80.31097
1.5556E-6	-74.577972
1.555645E-6	-72.234441
1.55569E-6	-71.47398
1.555735E-6	-71.433315
1.55578E-6	-71.401415
1.555825E-6	-71.485582
1.55587E-6	-71.273776
1.555915E-6	-71.45937
1.55596E-6	-72.204035
1.556005E-6	-74.487941
1.55605E-6	-78.323873
1.556095E-6	-82.902214
1.55614E-6	-88.130437
1.556185E-6	-86.827727
1.55623E-6	-85.721894
1.556275E-6	-89.496202
1.55632E-6	-86.280091
1.556365E-6	-80.237418
1.55641E-6	-74.234283
1.556455E-6	-72.182446
1.5565E-6	-71.500894
1.556545E-6	-71.275524
1.55659E-6	-71.195294
1.556635E-6	-71.376897
1.55668E-6	-71.304749
1.556725E-6	-71.393626
1.55677E-6	-72.262867
1.556815E-6	-74.594203
1.55686E-6	-78.124793
1.556905E-6	-84.379452
1.55695E-6	-87.423214
1.556995E-6	-85.089186
1.55704E-6	-87.077439
1.557085E-6	-86.40544
1.55713E-6	-85.590909
1.557175E-6	-79.562449
1.55722E-6	-74.408118
1.557265E-6	-72.037033
1.55731E-6	-71.619069
1.557355E-6	-71.298303
1.5574E-6	-71.263888
1.557445E-6	-71.366177
1.55749E-6	-71.315907
1.557535E-6	-71.356076
1.55758E-6	-72.356744
1.557625E-6	-74.754741
1.55767E-6	-79.259153
1.557715E-6	-83.464016
1.55776E-6	-85.91082
1.557805E-6	-86.708056
1.55785E-6	-85.779028
1.557895E-6	-86.409238
1.55794E-6	-85.439378
1.557985E-6	-79.164974
1.55803E-6	-74.136378
1.558075E-6	-72.368716
1.55812E-6	-71.564558
1.558165E-6	-71.337718
1.55821E-6	-71.239554
1.558255E-6	-71.512568
1.5583E-6	-70.863451
1.558345E-6	-71.680663
1.55839E-6	-72.298847
1.558435E-6	-74.824083
1.55848E-6	-78.623295
1.558525E-6	-82.344805
1.55857E-6	-86.247023
1.558615E-6	-85.865326
1.55866E-6	-88.279812
1.558705E-6	-86.88458
1.55875E-6	-83.693688
1.558795E-6	-79.821323
1.55884E-6	-74.541982
1.558885E-6	-72.298847
1.55893E-6	-71.587031
1.558975E-6	-71.641826
1.55902E-6	-71.63233
1.559065E-6	-71.639292
1.55911E-6	-71.608992
1.559155E-6	-71.698606
1.5592E-6	-72.357491
1.559245E-6	-74.897232
1.55929E-6	-79.362914
1.559335E-6	-83.156035
1.55938E-6	-88.699881
1.559425E-6	-87.452103
1.55947E-6	-88.195874
1.559515E-6	-87.75726
1.55956E-6	-88.309136
1.559605E-6	-79.897
1.55965E-6	-74.529641
1.559695E-6	-72.402566
1.55974E-6	-71.835598
1.559785E-6	-71.627905
1.55983E-6	-71.740549
1.559875E-6	-71.828314
1.55992E-6	-71.777665
1.559965E-6	-72.010733
1.56001E-6	-72.962788
1.560055E-6	-74.971634
1.5601E-6	-78.635966
1.560145E-6	-83.081232
1.56019E-6	-84.786004
1.560235E-6	-89.179331
1.56028E-6	-85.856953
1.560325E-6	-86.673596
1.56037E-6	-87.456937
1.560415E-6	-80.46772
1.56046E-6	-75.108856
1.560505E-6	-72.944784
1.56055E-6	-72.234441
1.560595E-6	-72.135325
1.56064E-6	-72.053029
1.560685E-6	-72.069084
1.56073E-6	-72.194667
1.560775E-6	-72.165967
1.56082E-6	-73.031196
1.560865E-6	-75.431787
1.56091E-6	-78.610661
1.560955E-6	-87.93444
1.561E-6	-89.500071
1.561045E-6	-87.744323
1.56109E-6	-90.016535
1.561135E-6	-92.212701
1.56118E-6	-91.272612
1.561225E-6	-81.222832
1.56127E-6	-75.564241
1.561315E-6	-73.175841
1.56136E-6	-72.564118
1.561405E-6	-72.495688
1.56145E-6	-72.736804
1.561495E-6	-72.304012
1.56154E-6	-72.407856
1.561585E-6	-72.626483
1.56163E-6	-73.035562
1.561675E-6	-75.738142
1.56172E-6	-78.910969
1.561765E-6	-83.236723
1.56181E-6	-87.050931
1.561855E-6	-88.377344
1.5619E-6	-87.121983
1.561945E-6	-90.527624
1.56199E-6	-88.958544
1.562035E-6	-81.421852
1.56208E-6	-76.356366
1.562125E-6	-73.968556
1.56217E-6	-72.926854
1.562215E-6	-72.825792
1.56226E-6	-72.789317
1.562305E-6	-72.948208
1.56235E-6	-73.049563
1.562395E-6	-73.091839
1.56244E-6	-73.672391
1.562485E-6	-75.462231
1.56253E-6	-78.569852
1.562575E-6	-82.451931
1.56262E-6	-86.74895
1.562665E-6	-120
1.56271E-6	-84.193031
1.562755E-6	-88.359447
1.5628E-6	-91.359044
1.562845E-6	-82.915791
1.56289E-6	-76.92718
1.562935E-6	-74.691602
1.56298E-6	-73.553645
1.563025E-6	-73.59618
1.56307E-6	-73.373366
1.563115E-6	-73.338566
1.56316E-6	-73.561527
1.563205E-6	-73.551677
1.56325E-6	-74.08824
1.563295E-6	-75.575202
1.56334E-6	-78.523237
1.563385E-6	-82.993828
1.56343E-6	-87.244583
1.563475E-6	-86.804776
1.56352E-6	-86.991872
1.563565E-6	-86.595559
1.56361E-6	-89.665762
1.563655E-6	-82.996425
1.5637E-6	-78.880657
1.563745E-6	-75.589336
1.56379E-6	-74.19189
1.563835E-6	-74.136378
1.56388E-6	-74.06271
1.563925E-6	-74.111683
1.56397E-6	-74.030732
1.564015E-6	-74.321505
1.56406E-6	-74.579219
1.564105E-6	-76.230582
1.56415E-6	-78.498578
1.564195E-6	-83.21846
1.56424E-6	-86.348866
1.564285E-6	-87.059749
1.56433E-6	-98.317973
1.564375E-6	-88.241984
1.56442E-6	-87.039933
1.564465E-6	-84.197595
1.56451E-6	-79.92679
1.564555E-6	-76.053732
1.5646E-6	-74.914703
1.564645E-6	-74.597957
1.56469E-6	-74.317983
1.564735E-6	-74.409317
1.56478E-6	-74.672456
1.564825E-6	-74.788619
1.56487E-6	-75.047333
1.564915E-6	-76.399749
1.56496E-6	-78.566729
1.565005E-6	-82.601113
1.56505E-6	-85.344684
1.565095E-6	-87.744323
1.56514E-6	-87.910215
1.565185E-6	-86.341378
1.56523E-6	-88.08549
1.565275E-6	-85.37153
1.56532E-6	-81.033636
1.565365E-6	-77.461776
1.56541E-6	-75.728386
1.565455E-6	-75.32836
1.5655E-6	-75.335773
1.565545E-6	-75.287083
1.56559E-6	-75.276825
1.565635E-6	-75.139948
1.56568E-6	-75.370034
1.565725E-6	-76.621416
1.56577E-6	-79.255493
1.565815E-6	-81.595802
1.56586E-6	-88.262312
1.565905E-6	-86.631402
1.56595E-6	-90.181361
1.565995E-6	-84.70313
1.56604E-6	-87.228494
1.566085E-6	-92.495688
1.56613E-6	-83.223018
1.566175E-6	-78.074325
1.56622E-6	-76.414941
1.566265E-6	-76.018863
1.56631E-6	-75.830268
1.566355E-6	-75.628839
1.5664E-6	-75.90405
1.566445E-6	-76.117211
1.56649E-6	-76.401645
1.566535E-6	-76.933606
1.56658E-6	-79.034376
1.566625E-6	-82.137456
1.56667E-6	-83.731466
1.566715E-6	-95.759355
1.56676E-6	-86.546263
1.566805E-6	-91.041356
1.56685E-6	-85.115903
1.566895E-6	-85.034855
1.56694E-6	-83.111354
1.566985E-6	-79.292235
1.56703E-6	-77.335331
1.567075E-6	-76.78816
1.56712E-6	-76.320853
1.567165E-6	-76.499459
1.56721E-6	-76.777807
1.567255E-6	-76.554113
1.5673E-6	-76.689778
1.567345E-6	-77.117508
1.56739E-6	-79.411945
1.567435E-6	-82.224282
1.56748E-6	-85.212892
1.567525E-6	-87.530093
1.56757E-6	-88.164455
1.567615E-6	-89.310724
1.56766E-6	-87.796304
1.567705E-6	-87.342391
1.56775E-6	-84.166878
1.567795E-6	-80.22688
1.56784E-6	-78.113527
1.567885E-6	-77.734001
1.56793E-6	-77.71343
1.567975E-6	-77.361273
1.56802E-6	-77.180581
1.568065E-6	-77.493361
1.56811E-6	-77.146678
1.568155E-6	-78.236193
1.5682E-6	-79.54677
1.568245E-6	-81.985963
1.56829E-6	-87.522722
1.568335E-6	-87.469044
1.56838E-6	-90.933418
1.568425E-6	-87.956087
1.56847E-6	-88.867253
1.568515E-6	-95.448505
1.56856E-6	-86.806857
1.568605E-6	-81.888273
1.56865E-6	-79.718356
1.568695E-6	-78.341624
1.56874E-6	-78.010681
1.568785E-6	-77.629592
1.56883E-6	-77.6675
1.568875E-6	-78.043771
1.56892E-6	-78.309136
1.568965E-6	-77.972393
1.56901E-6	-78.890738
1.569055E-6	-81.500281
1.5691E-6	-84.862498
1.569145E-6	-85.812017
1.56919E-6	-86.437829
1.569235E-6	-88.383326
1.56928E-6	-87.634627
1.569325E-6	-90.670699
1.56937E-6	-86.970201
1.569415E-6	-84.021952
1.56946E-6	-80.257186
1.569505E-6	-78.90759
1.56955E-6	-78.667805
1.569595E-6	-77.994231
1.56964E-6	-78.745187
1.569685E-6	-78.107905
1.56973E-6	-78.31208
1.569775E-6	-78.477117
1.56982E-6	-79.698052
1.569865E-6	-81.444203
1.56991E-6	-83.748934
1.569955E-6	-89.434763
1.57E-6	-86.181632
