Wavelength (nm)	Power (dBm)
1.525E-6	-79.04482
1.525045E-6	-78.823973
1.52509E-6	-78.894103
1.525135E-6	-81.267957
1.52518E-6	-83.441895
1.525225E-6	-93.405592
1.52527E-6	-93.071531
1.525315E-6	-87.026773
1.52536E-6	-89.689957
1.525405E-6	-88.088285
1.52545E-6	-86.560009
1.525495E-6	-83.386607
1.52554E-6	-80.383891
1.525585E-6	-77.888795
1.52563E-6	-77.642191
1.525675E-6	-77.124222
1.52572E-6	-77.302536
1.525765E-6	-77.046529
1.52581E-6	-76.786087
1.525855E-6	-77.2262
1.5259E-6	-78.201611
1.525945E-6	-80.528114
1.52599E-6	-85.586191
1.526035E-6	-90.476435
1.52608E-6	-94.983931
1.526125E-6	-90.862391
1.52617E-6	-87.988761
1.526215E-6	-95.713793
1.52626E-6	-83.935111
1.526305E-6	-79.629721
1.52635E-6	-76.863437
1.526395E-6	-76.110112
1.52644E-6	-76.17983
1.526485E-6	-76.041496
1.52653E-6	-75.747919
1.526575E-6	-75.883803
1.52662E-6	-75.662302
1.526665E-6	-77.07301
1.52671E-6	-79.657727
1.526755E-6	-84.118404
1.5268E-6	-92.004527
1.526845E-6	-87.652297
1.52689E-6	-88.389316
1.526935E-6	-91.400216
1.52698E-6	-90.549255
1.527025E-6	-87.316561
1.52707E-6	-79.090369
1.527115E-6	-76.172627
1.52716E-6	-74.89321
1.527205E-6	-75.097605
1.52725E-6	-74.58296
1.527295E-6	-74.476969
1.52734E-6	-74.560561
1.527385E-6	-74.654662
1.52743E-6	-75.295895
1.527475E-6	-77.907532
1.52752E-6	-81.697322
1.527565E-6	-85.968795
1.52761E-6	-87.420815
1.527655E-6	-86.873996
1.5277E-6	-91.539723
1.527745E-6	-89.344203
1.52779E-6	-86.773673
1.527835E-6	-79.75104
1.52788E-6	-75.409092
1.527925E-6	-74.064924
1.52797E-6	-73.860525
1.528015E-6	-73.965308
1.52806E-6	-73.753055
1.528105E-6	-73.602148
1.52815E-6	-73.80385
1.528195E-6	-74.329736
1.52824E-6	-75.895602
1.528285E-6	-79.366666
1.52833E-6	-84.771647
1.528375E-6	-89.310724
1.52842E-6	-88.06041
1.528465E-6	-89.292235
1.52851E-6	-88.800846
1.528555E-6	-85.767541
1.5286E-6	-79.952488
1.528645E-6	-75.725139
1.52869E-6	-73.73557
1.528735E-6	-73.346066
1.52878E-6	-73.046935
1.528825E-6	-72.955063
1.52887E-6	-73.13185
1.528915E-6	-73.035562
1.52896E-6	-73.33482
1.529005E-6	-74.591702
1.52905E-6	-77.999707
1.529095E-6	-81.639292
1.52914E-6	-90.044087
1.529185E-6	-88.215987
1.52923E-6	-89.956786
1.529275E-6	-93.498868
1.52932E-6	-100.882034
1.529365E-6	-82.941363
1.52941E-6	-76.078309
1.529455E-6	-73.601153
1.5295E-6	-72.790143
1.529545E-6	-72.663213
1.52959E-6	-72.49029
1.529635E-6	-72.439728
1.52968E-6	-72.432118
1.529725E-6	-72.573534
1.52977E-6	-73.580304
1.529815E-6	-76.160052
1.52986E-6	-79.767475
1.529905E-6	-84.73144
1.52995E-6	-89.255493
1.529995E-6	-90.348924
1.53004E-6	-89.419538
1.530085E-6	-90.468688
1.53013E-6	-84.885177
1.530175E-6	-77.373117
1.53022E-6	-73.849974
1.530265E-6	-72.684112
1.53031E-6	-72.380722
1.530355E-6	-72.156681
1.5304E-6	-72.347786
1.530445E-6	-72.095741
1.53049E-6	-72.062096
1.530535E-6	-72.727842
1.53058E-6	-74.752146
1.530625E-6	-78.850556
1.53067E-6	-82.125395
1.530715E-6	-88.323873
1.53076E-6	-93.928668
1.530805E-6	-87.486051
1.53085E-6	-120
1.530895E-6	-84.964817
1.53094E-6	-79.377942
1.530985E-6	-74.619292
1.53103E-6	-72.742517
1.531075E-6	-72.157394
1.53112E-6	-71.911816
1.531165E-6	-72.019021
1.53121E-6	-72.116195
1.531255E-6	-71.979792
1.5313E-6	-72.248995
1.531345E-6	-73.608124
1.53139E-6	-76.677636
1.531435E-6	-81.223408
1.53148E-6	-88.582368
1.531525E-6	-86.108339
1.53157E-6	-89.884296
1.531615E-6	-89.125735
1.53166E-6	-89.817157
1.531705E-6	-81.928033
1.53175E-6	-75.581478
1.531795E-6	-73.264262
1.53184E-6	-72.269453
1.531885E-6	-72.003149
1.53193E-6	-72.110543
1.531975E-6	-71.823024
1.53202E-6	-71.983219
1.532065E-6	-72.049546
1.53211E-6	-72.849163
1.532155E-6	-75.955084
1.5322E-6	-79.251836
1.532245E-6	-85.331324
1.53229E-6	-94.558079
1.532335E-6	-87.512913
1.53238E-6	-91.226863
1.532425E-6	-92.680891
1.53247E-6	-85.257837
1.532515E-6	-78.687022
1.53256E-6	-74.096041
1.532605E-6	-72.689756
1.53265E-6	-72.14599
1.532695E-6	-72.116195
1.53274E-6	-72.104193
1.532785E-6	-72.172408
1.53283E-6	-72.101374
1.532875E-6	-72.656003
1.53292E-6	-74.398542
1.532965E-6	-78.116341
1.53301E-6	-82.097852
1.533055E-6	-86.482037
1.5331E-6	-100.235125
1.533145E-6	-87.642191
1.53319E-6	-88.810742
1.533235E-6	-87.401673
1.53328E-6	-82.493374
1.533325E-6	-75.699249
1.53337E-6	-73.591212
1.533415E-6	-72.617746
1.53346E-6	-72.565686
1.533505E-6	-72.50341
1.53355E-6	-72.616952
1.533595E-6	-72.621715
1.53364E-6	-72.971388
1.533685E-6	-74.258529
1.53373E-6	-76.78816
1.533775E-6	-80.415795
1.53382E-6	-85.155578
1.533865E-6	-89.726504
1.53391E-6	-90.088182
1.533955E-6	-98.877302
1.534E-6	-86.263525
1.534045E-6	-84.183916
1.53409E-6	-79.20457
1.534135E-6	-74.977095
1.53418E-6	-73.449577
1.534225E-6	-73.122036
1.53427E-6	-73.285494
1.534315E-6	-73.220282
1.53436E-6	-73.331078
1.534405E-6	-73.343252
1.53445E-6	-73.851028
1.534495E-6	-75.697636
1.53454E-6	-79.097419
1.534585E-6	-84.517335
1.53463E-6	-92.12327
1.534675E-6	-95.927791
1.53472E-6	-88.526329
1.534765E-6	-99.473061
1.53481E-6	-88.268137
1.534855E-6	-81.781591
1.5349E-6	-76.996219
1.534945E-6	-74.555599
1.53499E-6	-73.942641
1.535035E-6	-73.902989
1.53508E-6	-73.911532
1.535125E-6	-73.971807
1.53517E-6	-74.298074
1.535215E-6	-74.096041
1.53526E-6	-75.341712
1.535305E-6	-77.90217
1.53535E-6	-82.865095
1.535395E-6	-87.872798
1.53544E-6	-89.24453
1.535485E-6	-87.527635
1.53553E-6	-91.406215
1.535575E-6	-88.368386
1.53562E-6	-86.587634
1.535665E-6	-80.280751
1.53571E-6	-75.963648
1.535755E-6	-74.841262
1.5358E-6	-74.272445
1.535845E-6	-74.476969
1.53589E-6	-74.517335
1.535935E-6	-74.540747
1.53598E-6	-74.826721
1.536025E-6	-75.526869
1.53607E-6	-76.955095
1.536115E-6	-80.372993
1.53616E-6	-85.635193
1.536205E-6	-94.895891
1.53625E-6	-87.020208
1.536295E-6	-95.114493
1.53634E-6	-86.205132
1.536385E-6	-92.850838
1.53643E-6	-83.419886
1.536475E-6	-77.230789
1.53652E-6	-75.659104
1.536565E-6	-75.019653
1.53661E-6	-75.047333
1.536655E-6	-75.238933
1.5367E-6	-75.26513
1.536745E-6	-75.243288
1.53679E-6	-75.723516
1.536835E-6	-76.825635
1.53688E-6	-79.582127
1.536925E-6	-84.550642
1.53697E-6	-91.533537
1.537015E-6	-90.578431
1.53706E-6	-99.104481
1.537105E-6	-88.153086
1.53715E-6	-88.520147
1.537195E-6	-86.058987
1.53724E-6	-80.125125
1.537285E-6	-76.907958
1.53733E-6	-75.559552
1.537375E-6	-75.16698
1.53742E-6	-75.413622
1.537465E-6	-75.520671
1.53751E-6	-75.586191
1.537555E-6	-75.243288
1.5376E-6	-75.944829
1.537645E-6	-77.817271
1.53769E-6	-80.673741
1.537735E-6	-86.252517
1.53778E-6	-91.069599
1.537825E-6	-120
1.53787E-6	-87.796304
1.537915E-6	-87.002748
1.53796E-6	-120
1.538005E-6	-84.487941
1.53805E-6	-79.08333
1.538095E-6	-76.38839
1.53814E-6	-75.840256
1.538185E-6	-75.412111
1.53823E-6	-75.731635
1.538275E-6	-75.630427
1.53832E-6	-75.483671
1.538365E-6	-75.840256
1.53841E-6	-76.794383
1.538455E-6	-79.430951
1.5385E-6	-83.147062
1.538545E-6	-89.833845
1.53859E-6	-89.097419
1.538635E-6	-97.406451
1.53868E-6	-94.404524
1.538725E-6	-93.020736
1.53877E-6	-83.852082
1.538815E-6	-80.359762
1.53886E-6	-77.478754
1.538905E-6	-76.039751
1.53895E-6	-75.767541
1.538995E-6	-75.550189
1.53904E-6	-75.694412
1.539085E-6	-75.415132
1.53913E-6	-75.75445
1.539175E-6	-75.812017
1.53922E-6	-78.010681
1.539265E-6	-80.529586
1.53931E-6	-85.992894
1.539355E-6	-88.153086
1.5394E-6	-96.320853
1.539445E-6	-90.64392
1.53949E-6	-88.948306
1.539535E-6	-91.90575
1.53958E-6	-83.900856
1.539625E-6	-79.24453
1.53967E-6	-75.938006
1.539715E-6	-75.575202
1.53976E-6	-75.157002
1.539805E-6	-75.185574
1.53985E-6	-75.154155
1.539895E-6	-75.442418
1.53994E-6	-75.437858
1.539985E-6	-76.667543
1.54003E-6	-78.951716
1.540075E-6	-82.431358
1.54012E-6	-84.652126
1.540165E-6	-88.362425
1.54021E-6	-88.890738
1.540255E-6	-85.912514
1.5403E-6	-93.438059
1.540345E-6	-86.311555
1.54039E-6	-81.571412
1.540435E-6	-77.525177
1.54048E-6	-75.738142
1.540525E-6	-75.31505
1.54057E-6	-75.139948
1.540615E-6	-75.228787
1.54066E-6	-75.290018
1.540705E-6	-75.241836
1.54075E-6	-75.512937
1.540795E-6	-77.219327
1.54084E-6	-79.788107
1.540885E-6	-84.087127
1.54093E-6	-87.097427
1.540975E-6	-120
1.54102E-6	-89.850597
1.541065E-6	-120
1.54111E-6	-86.232406
1.541155E-6	-84.786004
1.5412E-6	-79.434763
1.541245E-6	-76.27088
1.54129E-6	-75.001755
1.541335E-6	-74.726279
1.54138E-6	-75.014138
1.541425E-6	-74.459957
1.54147E-6	-75.004504
1.541515E-6	-75.072396
1.54156E-6	-75.531523
1.541605E-6	-78.065971
1.54165E-6	-80.711435
1.541695E-6	-85.082182
1.54174E-6	-88.955129
1.541785E-6	-90.13094
1.54183E-6	-120
1.541875E-6	-86.493644
1.54192E-6	-90.726296
1.541965E-6	-81.900365
1.54201E-6	-76.767479
1.542055E-6	-75.605094
1.5421E-6	-74.645793
1.542145E-6	-74.615519
1.54219E-6	-74.643262
1.542235E-6	-74.748256
1.54228E-6	-74.450265
1.542325E-6	-74.981195
1.54237E-6	-76.154674
1.542415E-6	-79.590023
1.54246E-6	-83.290124
1.542505E-6	-85.05428
1.54255E-6	-90.983238
1.542595E-6	-88.458805
1.54264E-6	-89.488475
1.542685E-6	-107.657359
1.54273E-6	-85.198493
1.542775E-6	-79.669786
1.54282E-6	-76.196078
1.542865E-6	-74.507514
1.54291E-6	-74.46117
1.542955E-6	-74.333269
1.543E-6	-74.483061
1.543045E-6	-74.260846
1.54309E-6	-74.396151
1.543135E-6	-74.959371
1.54318E-6	-76.550186
1.543225E-6	-79.476909
1.54327E-6	-84.284076
1.543315E-6	-87.602002
1.54336E-6	-87.050931
1.543405E-6	-90.700704
1.54345E-6	-89.685915
1.543495E-6	-86.360122
1.54354E-6	-82.874345
1.543585E-6	-78.096683
1.54363E-6	-75.115903
1.543675E-6	-74.481842
1.54372E-6	-74.475752
1.543765E-6	-74.030732
1.54381E-6	-74.393761
1.543855E-6	-74.160082
1.5439E-6	-74.365189
1.543945E-6	-75.625666
1.54399E-6	-77.798919
1.544035E-6	-81.315319
1.54408E-6	-85.130031
1.544125E-6	-93.882767
1.54417E-6	-88.8706
1.544215E-6	-90.877248
1.54426E-6	-88.452718
1.544305E-6	-89.366666
1.54435E-6	-80.884163
1.544395E-6	-76.101254
1.54444E-6	-74.708264
1.544485E-6	-74.455108
1.54453E-6	-74.46967
1.544575E-6	-74.134127
1.54462E-6	-74.285241
1.544665E-6	-74.281748
1.54471E-6	-74.315636
1.544755E-6	-75.683147
1.5448E-6	-79.129288
1.544845E-6	-82.145278
1.54489E-6	-83.955579
1.544935E-6	-86.942188
1.54498E-6	-85.401554
1.545025E-6	-81.469714
1.54507E-6	-74.507514
1.545115E-6	-61.139043
1.54516E-6	-47.74174
1.545205E-6	-41.696038
1.54525E-6	-39.637705
1.545295E-6	-39.237237
1.54534E-6	-39.143527
1.545385E-6	-39.125735
1.54543E-6	-39.175737
1.545475E-6	-39.633711
1.54552E-6	-41.832286
1.545565E-6	-47.126462
1.54561E-6	-56.931463
1.545655E-6	-65.512937
1.5457E-6	-72.69864
1.545745E-6	-78.425432
1.54579E-6	-82.385232
1.545835E-6	-85.383514
1.54588E-6	-86.017127
1.545925E-6	-83.299398
1.54597E-6	-78.027194
1.546015E-6	-75.101821
1.54606E-6	-74.100504
1.546105E-6	-74.175957
1.54615E-6	-74.19075
1.546195E-6	-74.20445
1.54624E-6	-73.929741
1.546285E-6	-74.145393
1.54633E-6	-75.148467
1.546375E-6	-77.652297
1.54642E-6	-80.283531
1.546465E-6	-85.278289
1.54651E-6	-89.132843
1.546555E-6	-86.794383
1.5466E-6	-87.16925
1.546645E-6	-93.210266
1.54669E-6	-87.223908
1.546735E-6	-81.327093
1.54678E-6	-76.593576
1.546825E-6	-74.828041
1.54687E-6	-74.309774
1.546915E-6	-74.133002
1.54696E-6	-74.181641
1.547005E-6	-73.943718
1.54705E-6	-74.300412
1.547095E-6	-74.097156
1.54714E-6	-75.188441
1.547185E-6	-77.68021
1.54723E-6	-81.439965
1.547275E-6	-85.975667
1.54732E-6	-91.717914
1.547365E-6	-88.658229
1.54741E-6	-85.572068
1.547455E-6	-120
1.5475E-6	-87.915586
1.547545E-6	-80.535969
1.54759E-6	-75.741399
1.547635E-6	-74.569258
1.54768E-6	-74.196453
1.547725E-6	-74.078232
1.54777E-6	-74.047243
1.547815E-6	-73.932963
1.54786E-6	-74.329736
1.547905E-6	-74.463597
1.54795E-6	-75.816987
1.547995E-6	-79.262816
1.54804E-6	-82.966226
1.548085E-6	-91.276689
1.54813E-6	-93.27625
1.548175E-6	-87.304871
1.54822E-6	-89.689957
1.548265E-6	-87.23998
1.54831E-6	-86.462761
1.548355E-6	-78.616973
1.5484E-6	-75.43027
1.548445E-6	-74.223933
1.54849E-6	-74.185055
1.548535E-6	-73.906191
1.54858E-6	-73.865811
1.548625E-6	-74.013189
1.54867E-6	-74.444219
1.548715E-6	-74.91605
1.54876E-6	-76.236056
1.548805E-6	-79.633711
1.54885E-6	-83.547743
1.548895E-6	-90.261797
1.54894E-6	-85.272436
1.548985E-6	-88.639139
1.54903E-6	-90.51196
1.549075E-6	-86.181632
1.54912E-6	-83.851028
1.549165E-6	-78.483238
1.54921E-6	-74.792545
1.549255E-6	-74.332091
1.5493E-6	-74.249277
1.549345E-6	-74.016473
1.54939E-6	-74.035129
1.549435E-6	-74.098272
1.54948E-6	-74.043936
1.549525E-6	-74.366376
1.54957E-6	-77.347104
1.549615E-6	-79.965395
1.54966E-6	-86.217839
1.549705E-6	-87.664962
1.54975E-6	-85.531523
1.549795E-6	-83.870043
1.54984E-6	-78.917733
1.549885E-6	-70.112627
1.54993E-6	-53.297541
1.549975E-6	-43.620102
1.55002E-6	-40.241089
1.550065E-6	-39.20457
1.55011E-6	-39.034376
1.550155E-6	-39.003194
1.5502E-6	-39.034376
1.550245E-6	-39.076303
1.55029E-6	-39.952488
1.550335E-6	-43.077702
1.55038E-6	-49.817157
1.550425E-6	-61.303577
1.55047E-6	-68.91435
1.550515E-6	-75.234582
1.55056E-6	-80.242007
1.550605E-6	-83.570411
1.55065E-6	-85.603516
1.550695E-6	-85.699249
1.55074E-6	-81.244179
1.550785E-6	-76.190655
1.55083E-6	-74.131877
1.550875E-6	-73.976144
1.55092E-6	-73.849974
1.550965E-6	-73.901922
1.55101E-6	-73.865811
1.551055E-6	-73.92545
1.5511E-6	-74.110564
1.551145E-6	-75.57677
1.55119E-6	-79.266483
1.551235E-6	-83.091839
1.55128E-6	-87.115272
1.551325E-6	-92.790968
1.55137E-6	-90.971272
1.551415E-6	-89.262816
1.55146E-6	-90.862391
1.551505E-6	-88.944898
1.55155E-6	-80.605806
1.551595E-6	-75.443939
1.55164E-6	-74.073792
1.551685E-6	-73.661277
1.55173E-6	-73.856302
1.551775E-6	-73.820566
1.55182E-6	-73.802807
1.551865E-6	-73.737623
1.55191E-6	-74.118404
1.551955E-6	-75.679933
1.552E-6	-78.480176
1.552045E-6	-82.144566
1.55209E-6	-88.133261
1.552135E-6	-90.370154
1.55218E-6	-88.661419
1.552225E-6	-86.637404
1.55227E-6	-93.909395
1.552315E-6	-87.026773
1.55236E-6	-79.069287
1.552405E-6	-75.26513
1.55245E-6	-73.996807
1.552495E-6	-73.923306
1.55254E-6	-73.688607
1.552585E-6	-73.829997
1.55263E-6	-73.514448
1.552675E-6	-73.825803
1.55272E-6	-74.222785
1.552765E-6	-75.747919
1.55281E-6	-79.629721
1.552855E-6	-83.128279
1.5529E-6	-87.50557
1.552945E-6	-86.695862
1.55299E-6	-90.985962
1.553035E-6	-88.501653
1.55308E-6	-91.918566
1.553125E-6	-83.993538
1.55317E-6	-78.323873
1.553215E-6	-74.933597
1.55326E-6	-73.77268
1.553305E-6	-73.560541
1.55335E-6	-73.417023
1.553395E-6	-73.551677
1.55344E-6	-73.667336
1.553485E-6	-73.435185
1.55353E-6	-74.090468
1.553575E-6	-75.867002
1.55362E-6	-78.992849
1.553665E-6	-84.862498
1.55371E-6	-100.960965
1.553755E-6	-86.825635
1.5538E-6	-87.682756
1.553845E-6	-85.956795
1.55389E-6	-88.648673
1.553935E-6	-84.343883
1.55398E-6	-77.033348
1.554025E-6	-74.886515
1.55407E-6	-73.712025
1.554115E-6	-73.56646
1.55416E-6	-73.626103
1.554205E-6	-73.385659
1.55425E-6	-73.528127
1.554295E-6	-73.604139
1.55434E-6	-74.256214
1.554385E-6	-76.26904
1.55443E-6	-79.430951
1.554475E-6	-84.329736
1.55452E-6	-85.807053
1.554565E-6	-92.476442
1.55461E-6	-90.198602
1.554655E-6	-92.289272
1.5547E-6	-85.912514
1.554745E-6	-82.71565
1.55479E-6	-77.066374
1.554835E-6	-74.267802
1.55488E-6	-73.661277
1.554925E-6	-73.408447
1.55497E-6	-73.436143
1.555015E-6	-73.39514
1.55506E-6	-73.224843
1.555105E-6	-73.536943
1.55515E-6	-74.143137
1.555195E-6	-76.524748
1.55524E-6	-80.382468
1.555285E-6	-85.145625
1.55533E-6	-87.265357
1.555375E-6	-95.147046
1.55542E-6	-101.388242
1.555465E-6	-94.806972
1.55551E-6	-99.359166
1.555555E-6	-82.629665
1.5556E-6	-76.058987
1.555645E-6	-74.067139
1.55569E-6	-73.346066
1.555735E-6	-73.255982
1.55578E-6	-73.242217
1.555825E-6	-73.153341
1.55587E-6	-73.435185
1.555915E-6	-73.409399
1.55596E-6	-74.012095
1.556005E-6	-76.352614
1.55605E-6	-81.295961
1.556095E-6	-85.362563
1.55614E-6	-93.91367
1.556185E-6	-92.55707
1.55623E-6	-87.454519
1.556275E-6	-90.331546
1.55632E-6	-97.311881
1.556365E-6	-81.504577
1.55641E-6	-76.176227
1.556455E-6	-74.023048
1.5565E-6	-73.077702
1.556545E-6	-73.190303
1.55659E-6	-73.390397
1.556635E-6	-73.236723
1.55668E-6	-73.219371
1.556725E-6	-73.35358
1.55677E-6	-74.203307
1.556815E-6	-76.201508
1.55686E-6	-80.516849
1.556905E-6	-86.92932
1.55695E-6	-91.301232
1.556995E-6	-89.601894
1.55704E-6	-88.377344
1.557085E-6	-86.458916
1.55713E-6	-86.11366
1.557175E-6	-81.860856
1.55722E-6	-75.646335
1.557265E-6	-73.838397
1.55731E-6	-73.456309
1.557355E-6	-73.419886
1.5574E-6	-73.244966
1.557445E-6	-73.160529
1.55749E-6	-73.332013
1.557535E-6	-73.406544
1.55758E-6	-74.31329
1.557625E-6	-76.677636
1.55767E-6	-80.08641
1.557715E-6	-84.404524
1.55776E-6	-87.354183
1.557805E-6	-84.960732
1.55785E-6	-89.24453
1.557895E-6	-88.431481
1.55794E-6	-89.266483
1.557985E-6	-81.173047
1.55803E-6	-75.861975
1.558075E-6	-73.9545
1.55812E-6	-73.36959
1.558165E-6	-73.272558
1.55821E-6	-73.320803
1.558255E-6	-73.299398
1.5583E-6	-73.382819
1.558345E-6	-73.554629
1.55839E-6	-74.534573
1.558435E-6	-76.362001
1.55848E-6	-80.594835
1.558525E-6	-83.591212
1.55857E-6	-91.063492
1.558615E-6	-87.607005
1.55866E-6	-98.610661
1.558705E-6	-87.196493
1.55875E-6	-87.375489
1.558795E-6	-81.660246
1.55884E-6	-76.081831
1.558885E-6	-74.090468
1.55893E-6	-73.574366
1.558975E-6	-73.664306
1.55902E-6	-73.520305
1.559065E-6	-73.271635
1.55911E-6	-73.296614
1.559155E-6	-73.514448
1.5592E-6	-74.511194
1.559245E-6	-76.802695
1.55929E-6	-80.101943
1.559335E-6	-87.002748
1.55938E-6	-90.049794
1.559425E-6	-91.134529
1.55947E-6	-92.942218
1.559515E-6	-94.353339
1.55956E-6	-90.651482
1.559605E-6	-82.081691
1.55965E-6	-76.332036
1.559695E-6	-74.284076
1.55974E-6	-73.910463
1.559785E-6	-73.474636
1.55983E-6	-73.581295
1.559875E-6	-73.640139
1.55992E-6	-73.549709
1.559965E-6	-73.861582
1.56001E-6	-74.723701
1.560055E-6	-76.850799
1.5601E-6	-81.040805
1.560145E-6	-86.356366
1.56019E-6	-92.427558
1.560235E-6	-88.10229
1.56028E-6	-85.547072
1.560325E-6	-87.2262
1.56037E-6	-85.437858
1.560415E-6	-82.206922
1.56046E-6	-76.35449
1.560505E-6	-74.70313
1.56055E-6	-74.174821
1.560595E-6	-73.862639
1.56064E-6	-73.817427
1.560685E-6	-74.221637
1.56073E-6	-73.965308
1.560775E-6	-74.211317
1.56082E-6	-74.959371
1.560865E-6	-77.384992
1.56091E-6	-80.650977
1.560955E-6	-86.631402
1.561E-6	-87.033348
1.561045E-6	-89.93962
1.56109E-6	-90.569509
1.561135E-6	-92.507276
1.56118E-6	-88.320922
1.561225E-6	-83.745846
1.56127E-6	-78.024438
1.561315E-6	-75.243288
1.56136E-6	-74.509967
1.561405E-6	-73.959901
1.56145E-6	-74.061603
1.561495E-6	-74.569258
1.56154E-6	-74.524714
1.561585E-6	-74.497716
1.56163E-6	-75.836924
1.561675E-6	-76.855008
1.56172E-6	-81.105862
1.561765E-6	-85.374523
1.56181E-6	-88.507809
1.561855E-6	-89.601894
1.5619E-6	-86.987529
1.561945E-6	-88.725712
1.56199E-6	-86.631402
1.562035E-6	-84.063817
1.56208E-6	-78.655041
1.562125E-6	-75.353614
1.56217E-6	-75.134278
1.562215E-6	-74.92684
1.56226E-6	-75.094797
1.562305E-6	-74.780778
1.56235E-6	-74.925489
1.562395E-6	-74.990778
1.56244E-6	-76.001533
1.562485E-6	-77.899492
1.56253E-6	-80.236959
1.562575E-6	-85.137112
1.56262E-6	-120
1.562665E-6	-86.066003
1.56271E-6	-90.894823
1.562755E-6	-86.998395
1.5628E-6	-89.54677
1.562845E-6	-86.516951
1.56289E-6	-79.804683
1.562935E-6	-76.126102
1.56298E-6	-75.205687
1.563025E-6	-75.292956
1.56307E-6	-75.416644
1.563115E-6	-75.325399
1.56316E-6	-75.509847
1.563205E-6	-75.561115
1.56325E-6	-76.129663
1.563295E-6	-77.956087
1.56334E-6	-80.447935
1.563385E-6	-86.74074
1.56343E-6	-88.082696
1.563475E-6	-93.902989
1.56352E-6	-85.955084
1.563565E-6	-120
1.56361E-6	-87.980569
1.563655E-6	-85.195619
1.5637E-6	-80.428718
1.563745E-6	-77.015836
1.56379E-6	-75.647929
1.563835E-6	-75.660702
1.56388E-6	-75.644741
1.563925E-6	-75.885487
1.56397E-6	-75.638374
1.564015E-6	-75.958508
1.56406E-6	-76.281935
1.564105E-6	-77.93444
1.56415E-6	-80.413883
1.564195E-6	-83.748934
1.56424E-6	-89.956786
1.564285E-6	-86.897316
1.56433E-6	-87.89414
1.564375E-6	-90.787819
1.56442E-6	-89.336741
1.564465E-6	-85.450028
1.56451E-6	-81.2056
1.564555E-6	-78.107905
1.5646E-6	-76.546263
1.564645E-6	-76.9897
1.56469E-6	-76.245193
1.564735E-6	-76.583677
1.56478E-6	-76.495581
1.564825E-6	-76.38839
1.56487E-6	-76.710091
1.564915E-6	-78.315025
1.56496E-6	-80.798767
1.565005E-6	-85.586191
1.56505E-6	-89.266483
1.565095E-6	-88.44057
1.56514E-6	-88.181564
1.565185E-6	-90.835987
1.56523E-6	-89.122186
1.565275E-6	-86.685727
1.56532E-6	-82.815814
1.565365E-6	-79.677843
1.56541E-6	-77.559704
1.565455E-6	-76.895191
1.5655E-6	-76.918626
1.565545E-6	-76.806857
1.56559E-6	-77.354183
1.565635E-6	-77.061956
1.56568E-6	-77.340036
1.565725E-6	-78.560489
1.56577E-6	-80.753073
1.565815E-6	-85.463759
1.56586E-6	-87.796304
1.565905E-6	-120
1.56595E-6	-93.76544
1.565995E-6	-90.603809
1.56604E-6	-90.771189
1.566085E-6	-91.071822
1.56613E-6	-84.89321
1.566175E-6	-79.763361
1.56622E-6	-78.471004
1.566265E-6	-77.432823
1.56631E-6	-77.377863
1.566355E-6	-77.547342
1.5664E-6	-77.535014
1.566445E-6	-77.708303
1.56649E-6	-77.413627
1.566535E-6	-79.423339
1.56658E-6	-81.065712
1.566625E-6	-83.72327
1.56667E-6	-89.92679
1.566715E-6	-101.534155
1.56676E-6	-120
1.566805E-6	-87.210179
1.56685E-6	-88.569852
1.566895E-6	-89.182927
1.56694E-6	-90.7053
1.566985E-6	-81.240132
1.56703E-6	-79.404366
1.567075E-6	-78.486301
1.56712E-6	-78.486301
1.567165E-6	-78.105097
1.56721E-6	-78.59492
1.567255E-6	-78.551146
1.5673E-6	-78.8706
1.567345E-6	-78.761484
1.56739E-6	-80.90551
1.567435E-6	-82.065589
1.56748E-6	-86.439741
1.567525E-6	-90.996875
1.56757E-6	-89.698052
1.567615E-6	-92.052332
1.56766E-6	-86.972363
1.567705E-6	-88.904215
1.56775E-6	-85.759355
1.567795E-6	-85.675117
1.56784E-6	-79.779843
1.567885E-6	-79.377942
1.56793E-6	-77.50557
1.567975E-6	-79.093893
1.56802E-6	-78.748442
1.568065E-6	-78.76475
1.56811E-6	-79.698052
1.568155E-6	-79.892761
1.5682E-6	-81.249387
1.568245E-6	-85.003129
1.56829E-6	-87.121983
1.568335E-6	-93.575355
1.56838E-6	-88.005191
1.568425E-6	-86.558043
1.56847E-6	-89.284862
1.568515E-6	-88.975663
1.56856E-6	-85.440898
1.568605E-6	-86.597542
1.56865E-6	-82.452695
1.568695E-6	-79.986991
1.56874E-6	-79.884296
1.568785E-6	-80.11664
1.56883E-6	-80.080655
1.568875E-6	-79.681877
1.56892E-6	-79.597934
1.568965E-6	-80.209527
1.56901E-6	-81.12833
1.569055E-6	-83.889143
1.5691E-6	-89.072794
1.569145E-6	-94.202164
1.56919E-6	-88.996295
1.569235E-6	-87.664962
1.56928E-6	-88.996295
1.569325E-6	-88.582368
1.56937E-6	-89.072794
1.569415E-6	-87.026773
1.56946E-6	-82.541448
1.569505E-6	-80.237876
1.56955E-6	-80.958256
1.569595E-6	-80.934495
1.56964E-6	-80.347512
1.569685E-6	-80.370627
1.56973E-6	-80.745332
1.569775E-6	-81.18216
1.56982E-6	-81.78421
1.569865E-6	-83.25966
1.56991E-6	-84.474535
1.569955E-6	-86.474316
1.57E-6	-90.12155
