Wavelength (nm)	Power (dBm)
1.525E-6	-47.418418
1.525045E-6	-47.253804
1.52509E-6	-47.115272
1.525135E-6	-46.983191
1.52518E-6	-46.857113
1.525225E-6	-46.710091
1.52527E-6	-46.558043
1.525315E-6	-46.416844
1.52536E-6	-46.298572
1.525405E-6	-46.149302
1.52545E-6	-46.022337
1.525495E-6	-45.828606
1.52554E-6	-45.668705
1.525585E-6	-45.503673
1.52563E-6	-45.412111
1.525675E-6	-45.268051
1.52572E-6	-45.15131
1.525765E-6	-44.978461
1.52581E-6	-44.92819
1.525855E-6	-44.795165
1.5259E-6	-44.766438
1.525945E-6	-44.66991
1.52599E-6	-44.599209
1.526035E-6	-44.490382
1.52608E-6	-44.411715
1.526125E-6	-44.381833
1.52617E-6	-44.194171
1.526215E-6	-44.116162
1.52626E-6	-43.972891
1.526305E-6	-43.768541
1.52635E-6	-43.633116
1.526395E-6	-43.551677
1.52644E-6	-43.429441
1.526485E-6	-43.322669
1.52653E-6	-43.254144
1.526575E-6	-43.140792
1.52662E-6	-43.098039
1.526665E-6	-43.056581
1.52671E-6	-43.046059
1.526755E-6	-42.967946
1.5268E-6	-42.913242
1.526845E-6	-42.882771
1.52689E-6	-42.762161
1.526935E-6	-42.675258
1.52698E-6	-42.580609
1.527025E-6	-42.480284
1.52707E-6	-42.364971
1.527115E-6	-42.214147
1.52716E-6	-42.116902
1.527205E-6	-42.013494
1.52725E-6	-41.951793
1.527295E-6	-41.890286
1.52734E-6	-41.784865
1.527385E-6	-41.773743
1.52743E-6	-41.798642
1.527475E-6	-41.811805
1.52752E-6	-41.880231
1.527565E-6	-41.871535
1.52761E-6	-41.753536
1.527655E-6	-41.734069
1.5277E-6	-41.728247
1.527745E-6	-41.658973
1.52779E-6	-41.603334
1.527835E-6	-41.442992
1.52788E-6	-41.353703
1.527925E-6	-41.241866
1.52797E-6	-41.175893
1.528015E-6	-41.19701
1.52806E-6	-41.124952
1.528105E-6	-41.132837
1.52815E-6	-41.132274
1.528195E-6	-41.14865
1.52824E-6	-41.244179
1.528285E-6	-41.369152
1.52833E-6	-41.339491
1.528375E-6	-41.362015
1.52842E-6	-41.404414
1.528465E-6	-41.382267
1.52851E-6	-41.393626
1.528555E-6	-41.353703
1.5286E-6	-41.289527
1.528645E-6	-41.148085
1.52869E-6	-41.021531
1.528735E-6	-41.005078
1.52878E-6	-40.980515
1.528825E-6	-40.984327
1.52887E-6	-41.002889
1.528915E-6	-40.989778
1.52896E-6	-41.037494
1.529005E-6	-41.121015
1.52905E-6	-41.301232
1.529095E-6	-41.393027
1.52914E-6	-41.464843
1.529185E-6	-41.424263
1.52923E-6	-41.461193
1.529275E-6	-41.41523
1.52932E-6	-41.44905
1.529365E-6	-41.439965
1.52941E-6	-41.258662
1.529455E-6	-41.179311
1.5295E-6	-41.100823
1.529545E-6	-41.119891
1.52959E-6	-41.126078
1.529635E-6	-41.201017
1.52968E-6	-41.159981
1.529725E-6	-41.175324
1.52977E-6	-41.310031
1.529815E-6	-41.483137
1.52986E-6	-41.638025
1.529905E-6	-41.710824
1.52995E-6	-41.694755
1.529995E-6	-41.712113
1.53004E-6	-41.72114
1.530085E-6	-41.724369
1.53013E-6	-41.683861
1.530175E-6	-41.598939
1.53022E-6	-41.422455
1.530265E-6	-41.37809
1.53031E-6	-41.354296
1.530355E-6	-41.369152
1.5304E-6	-41.375704
1.530445E-6	-41.372129
1.53049E-6	-41.422455
1.530535E-6	-41.504577
1.53058E-6	-41.658337
1.530625E-6	-41.872871
1.53067E-6	-41.902383
1.530715E-6	-41.941595
1.53076E-6	-41.895658
1.530805E-6	-41.960652
1.53085E-6	-41.980478
1.530895E-6	-41.969528
1.53094E-6	-41.860856
1.530985E-6	-41.690266
1.53103E-6	-41.587657
1.531075E-6	-41.54964
1.53112E-6	-41.572036
1.531165E-6	-41.56269
1.53121E-6	-41.593294
1.531255E-6	-41.540342
1.5313E-6	-41.630433
1.531345E-6	-41.784865
1.53139E-6	-41.988022
1.531435E-6	-42.073982
1.53148E-6	-42.126812
1.531525E-6	-42.130357
1.53157E-6	-42.126104
1.531615E-6	-42.131776
1.53166E-6	-42.146702
1.531705E-6	-42.074682
1.53175E-6	-41.895658
1.531795E-6	-41.737308
1.53184E-6	-41.690266
1.531885E-6	-41.705676
1.53193E-6	-41.674911
1.531975E-6	-41.688984
1.53202E-6	-41.697964
1.532065E-6	-41.7276
1.53211E-6	-41.856858
1.532155E-6	-42.010733
1.5322E-6	-42.158822
1.532245E-6	-42.21704
1.53229E-6	-42.219211
1.532335E-6	-42.238075
1.53238E-6	-42.251182
1.532425E-6	-42.230084
1.53247E-6	-42.218487
1.532515E-6	-42.05512
1.53256E-6	-41.908445
1.532605E-6	-41.78552
1.53265E-6	-41.769172
1.532695E-6	-41.775704
1.53274E-6	-41.756789
1.532785E-6	-41.767214
1.53283E-6	-41.800614
1.532875E-6	-41.890286
1.53292E-6	-42.037727
1.532965E-6	-42.165967
1.53301E-6	-42.238075
1.533055E-6	-42.2541
1.5331E-6	-42.258481
1.533145E-6	-42.284125
1.53319E-6	-42.276783
1.533235E-6	-42.268721
1.53328E-6	-42.168113
1.533325E-6	-41.987335
1.53337E-6	-41.894315
1.533415E-6	-41.874208
1.53346E-6	-41.859523
1.533505E-6	-41.852199
1.53355E-6	-41.850868
1.533595E-6	-41.875546
1.53364E-6	-41.921269
1.533685E-6	-42.045371
1.53373E-6	-42.173124
1.533775E-6	-42.268721
1.53382E-6	-42.252641
1.533865E-6	-42.302535
1.53391E-6	-42.295162
1.533955E-6	-42.267257
1.534E-6	-42.295899
1.534045E-6	-42.262136
1.53409E-6	-42.173841
1.534135E-6	-42.004527
1.53418E-6	-41.940236
1.534225E-6	-41.947031
1.53427E-6	-41.907771
1.534315E-6	-41.942274
1.53436E-6	-41.943632
1.534405E-6	-41.945671
1.53445E-6	-41.970211
1.534495E-6	-42.106308
1.53454E-6	-42.261404
1.534585E-6	-42.308443
1.53463E-6	-42.327699
1.534675E-6	-42.3114
1.53472E-6	-42.302535
1.534765E-6	-42.309921
1.53481E-6	-42.271651
1.534855E-6	-42.243896
1.5349E-6	-42.091521
1.534945E-6	-41.996954
1.53499E-6	-41.974315
1.535035E-6	-41.970895
1.53508E-6	-41.947711
1.535125E-6	-41.951793
1.53517E-6	-41.964063
1.535215E-6	-42.006595
1.53526E-6	-42.080989
1.535305E-6	-42.191788
1.53535E-6	-42.251182
1.535395E-6	-42.267257
1.53544E-6	-42.275316
1.535485E-6	-42.265061
1.53553E-6	-42.238075
1.535575E-6	-42.237348
1.53562E-6	-42.231536
1.535665E-6	-42.153114
1.53571E-6	-42.018329
1.535755E-6	-41.970211
1.5358E-6	-41.970895
1.535845E-6	-41.967478
1.53589E-6	-41.966112
1.535935E-6	-41.968844
1.53598E-6	-41.942274
1.536025E-6	-42.016256
1.53607E-6	-42.085199
1.536115E-6	-42.162393
1.53616E-6	-42.207644
1.536205E-6	-42.198988
1.53625E-6	-42.193947
1.536295E-6	-42.150263
1.53634E-6	-42.173841
1.536385E-6	-42.163108
1.53643E-6	-42.109131
1.536475E-6	-42.023863
1.53652E-6	-41.926003
1.536565E-6	-41.874208
1.53661E-6	-41.892971
1.536655E-6	-41.905076
1.5367E-6	-41.907771
1.536745E-6	-41.926003
1.53679E-6	-41.885591
1.536835E-6	-41.952474
1.53688E-6	-42.030789
1.536925E-6	-42.112661
1.53697E-6	-42.115488
1.537015E-6	-42.073282
1.53706E-6	-42.071882
1.537105E-6	-42.066986
1.53715E-6	-42.104898
1.537195E-6	-42.045371
1.53724E-6	-41.987335
1.537285E-6	-41.850868
1.53733E-6	-41.833611
1.537375E-6	-41.781591
1.53742E-6	-41.813123
1.537465E-6	-41.815761
1.53751E-6	-41.78421
1.537555E-6	-41.781591
1.5376E-6	-41.819061
1.537645E-6	-41.910467
1.53769E-6	-41.994204
1.537735E-6	-42.025247
1.53778E-6	-42.007973
1.537825E-6	-42.019712
1.53787E-6	-41.982534
1.537915E-6	-41.988708
1.53796E-6	-41.968844
1.538005E-6	-41.91249
1.53805E-6	-41.834936
1.538095E-6	-41.76265
1.53814E-6	-41.741846
1.538185E-6	-41.752235
1.53823E-6	-41.732128
1.538275E-6	-41.738604
1.53832E-6	-41.703746
1.538365E-6	-41.728247
1.53841E-6	-41.799957
1.538455E-6	-41.906423
1.5385E-6	-41.935487
1.538545E-6	-41.928033
1.53859E-6	-41.940915
1.538635E-6	-41.953155
1.53868E-6	-41.958606
1.538725E-6	-41.92871
1.53877E-6	-41.930742
1.538815E-6	-41.844223
1.53886E-6	-41.750935
1.538905E-6	-41.728893
1.53895E-6	-41.716624
1.538995E-6	-41.710824
1.53904E-6	-41.691548
1.539085E-6	-41.715979
1.53913E-6	-41.686422
1.539175E-6	-41.752235
1.53922E-6	-41.84688
1.539265E-6	-41.907771
1.53931E-6	-41.942274
1.539355E-6	-41.936165
1.5394E-6	-41.949071
1.539445E-6	-41.965429
1.53949E-6	-41.958606
1.539535E-6	-41.996954
1.53958E-6	-41.904403
1.539625E-6	-41.807852
1.53967E-6	-41.738604
1.539715E-6	-41.747687
1.53976E-6	-41.735365
1.539805E-6	-41.726954
1.53985E-6	-41.745739
1.539895E-6	-41.720495
1.53994E-6	-41.767867
1.539985E-6	-41.798642
1.54003E-6	-41.939558
1.540075E-6	-41.967478
1.54012E-6	-41.975684
1.540165E-6	-41.982534
1.54021E-6	-42.006595
1.540255E-6	-42.013494
1.5403E-6	-41.988022
1.540345E-6	-42.003838
1.54039E-6	-41.906423
1.540435E-6	-41.805219
1.54048E-6	-41.790764
1.540525E-6	-41.779628
1.54057E-6	-41.733422
1.540615E-6	-41.751585
1.54066E-6	-41.749636
1.540705E-6	-41.763302
1.54075E-6	-41.8303
1.540795E-6	-41.91654
1.54084E-6	-41.999706
1.540885E-6	-42.02871
1.54093E-6	-42.045371
1.540975E-6	-42.06489
1.54102E-6	-42.051635
1.541065E-6	-42.082392
1.54111E-6	-42.05512
1.541155E-6	-42.016256
1.5412E-6	-41.90575
1.541245E-6	-41.848209
1.54129E-6	-41.827653
1.541335E-6	-41.783555
1.54138E-6	-41.797985
1.541425E-6	-41.816421
1.54147E-6	-41.811146
1.541515E-6	-41.8303
1.54156E-6	-41.868195
1.541605E-6	-42.019712
1.54165E-6	-42.086603
1.541695E-6	-42.092927
1.54174E-6	-42.111955
1.541785E-6	-42.119024
1.54183E-6	-42.099261
1.541875E-6	-42.112661
1.54192E-6	-42.103488
1.541965E-6	-42.062794
1.54201E-6	-41.941595
1.542055E-6	-41.88358
1.5421E-6	-41.860856
1.542145E-6	-41.82633
1.54219E-6	-41.829638
1.542235E-6	-41.862856
1.54228E-6	-41.876215
1.542325E-6	-41.89633
1.54237E-6	-41.981163
1.542415E-6	-42.053726
1.54246E-6	-42.156681
1.542505E-6	-42.181011
1.54255E-6	-42.183882
1.542595E-6	-42.193227
1.54264E-6	-42.197547
1.542685E-6	-42.195387
1.54273E-6	-42.14599
1.542775E-6	-42.069084
1.54282E-6	-41.970211
1.542865E-6	-41.936165
1.54291E-6	-41.906423
1.542955E-6	-41.923297
1.543E-6	-41.929388
1.543045E-6	-41.922621
1.54309E-6	-41.938879
1.543135E-6	-41.990768
1.54318E-6	-42.096445
1.543225E-6	-42.212701
1.54327E-6	-42.270918
1.543315E-6	-42.285595
1.54336E-6	-42.307704
1.543405E-6	-42.294425
1.54345E-6	-42.292216
1.543495E-6	-42.298847
1.54354E-6	-42.25556
1.543585E-6	-42.145278
1.54363E-6	-42.059304
1.543675E-6	-42.001083
1.54372E-6	-42.026632
1.543765E-6	-42.027325
1.54381E-6	-42.044676
1.543855E-6	-42.023171
1.5439E-6	-42.057909
1.543945E-6	-42.146702
1.54399E-6	-42.259943
1.544035E-6	-42.38448
1.54408E-6	-42.391254
1.544125E-6	-42.415423
1.54417E-6	-42.396529
1.544215E-6	-42.395775
1.54426E-6	-42.42604
1.544305E-6	-42.3905
1.54435E-6	-42.333641
1.544395E-6	-42.22066
1.54444E-6	-42.126812
1.544485E-6	-42.137456
1.54453E-6	-42.138877
1.544575E-6	-42.137456
1.54462E-6	-42.147414
1.544665E-6	-42.186037
1.54471E-6	-42.168829
1.544755E-6	-42.277517
1.5448E-6	-42.424521
1.544845E-6	-42.518895
1.54489E-6	-42.521223
1.544935E-6	-42.496459
1.54498E-6	-42.511146
1.545025E-6	-42.468001
1.54507E-6	-42.12327
1.545115E-6	-37.026773
1.54516E-6	-26.683703
1.545205E-6	-21.31238
1.54525E-6	-19.104481
1.545295E-6	-18.616973
1.54534E-6	-18.566729
1.545385E-6	-18.523237
1.54543E-6	-18.523237
1.545475E-6	-18.917733
1.54552E-6	-20.857627
1.545565E-6	-25.792194
1.54561E-6	-34.638205
1.545655E-6	-40.843364
1.5457E-6	-42.27385
1.545745E-6	-42.544568
1.54579E-6	-42.615366
1.545835E-6	-42.642415
1.54588E-6	-42.648005
1.545925E-6	-42.609026
1.54597E-6	-42.502637
1.546015E-6	-42.39276
1.54606E-6	-42.353756
1.546105E-6	-42.353009
1.54615E-6	-42.353756
1.546195E-6	-42.366469
1.54624E-6	-42.355997
1.546285E-6	-42.372464
1.54633E-6	-42.448114
1.546375E-6	-42.570393
1.54642E-6	-42.66562
1.546465E-6	-42.708352
1.54651E-6	-42.710784
1.546555E-6	-42.714839
1.5466E-6	-42.71565
1.546645E-6	-42.584545
1.54669E-6	-41.537248
1.546735E-6	-31.371533
1.54678E-6	-23.256901
1.546825E-6	-19.922522
1.54687E-6	-18.817353
1.546915E-6	-18.642315
1.54696E-6	-18.604357
1.547005E-6	-18.59492
1.54705E-6	-18.754958
1.547095E-6	-19.800533
1.54714E-6	-23.134531
1.547185E-6	-30.272419
1.54723E-6	-39.37418
1.547275E-6	-42.099965
1.54732E-6	-42.632849
1.547365E-6	-42.746602
1.54741E-6	-42.787666
1.547455E-6	-42.790143
1.5475E-6	-42.75888
1.547545E-6	-42.682501
1.54759E-6	-42.568824
1.547635E-6	-42.504183
1.54768E-6	-42.498003
1.547725E-6	-42.486439
1.54777E-6	-42.482591
1.547815E-6	-42.474906
1.54786E-6	-42.493374
1.547905E-6	-42.530546
1.54795E-6	-42.634442
1.547995E-6	-42.751509
1.54804E-6	-42.807516
1.548085E-6	-42.8208
1.54813E-6	-42.831623
1.548175E-6	-42.824959
1.54822E-6	-42.762161
1.548265E-6	-42.401056
1.54831E-6	-36.865546
1.548355E-6	-26.187044
1.5484E-6	-21.094113
1.548445E-6	-19.086848
1.54849E-6	-18.655041
1.548535E-6	-18.572978
1.54858E-6	-18.53872
1.548625E-6	-18.572978
1.54867E-6	-18.985966
1.548715E-6	-20.999061
1.54876E-6	-26.192462
1.548805E-6	-35.50059
1.54885E-6	-41.199299
1.548895E-6	-42.513469
1.54894E-6	-42.790143
1.548985E-6	-42.830789
1.54903E-6	-42.829956
1.549075E-6	-42.821631
1.54912E-6	-42.78107
1.549165E-6	-42.676062
1.54921E-6	-42.579036
1.549255E-6	-42.525105
1.5493E-6	-42.493374
1.549345E-6	-42.483361
1.54939E-6	-42.495688
1.549435E-6	-42.500319
1.54948E-6	-42.514244
1.549525E-6	-42.572749
1.54957E-6	-42.680086
1.549615E-6	-42.791794
1.54966E-6	-42.83329
1.549705E-6	-42.830789
1.54975E-6	-42.830789
1.549795E-6	-42.798407
1.54984E-6	-42.672043
1.549885E-6	-41.795358
1.54993E-6	-32.207644
1.549975E-6	-23.407495
1.55002E-6	-19.884296
1.550065E-6	-18.687022
1.55011E-6	-18.4649
1.550155E-6	-18.428456
1.5502E-6	-18.410347
1.550245E-6	-18.45576
1.55029E-6	-19.222688
1.550335E-6	-22.096445
1.55038E-6	-28.774565
1.550425E-6	-38.247782
1.55047E-6	-41.806535
1.550515E-6	-42.61061
1.55056E-6	-42.744967
1.550605E-6	-42.775306
1.55065E-6	-42.775306
1.550695E-6	-42.786016
1.55074E-6	-42.703493
1.550785E-6	-42.570393
1.55083E-6	-42.471836
1.550875E-6	-42.4443
1.55092E-6	-42.435921
1.550965E-6	-42.436682
1.55101E-6	-42.435921
1.551055E-6	-42.433639
1.5511E-6	-42.443538
1.551145E-6	-42.53833
1.55119E-6	-42.664015
1.551235E-6	-42.754784
1.55128E-6	-42.780246
1.551325E-6	-42.778599
1.55137E-6	-42.768728
1.551415E-6	-42.767907
1.55146E-6	-42.76052
1.551505E-6	-42.751509
1.55155E-6	-42.658405
1.551595E-6	-42.511146
1.55164E-6	-42.417696
1.551685E-6	-42.391254
1.55173E-6	-42.393514
1.551775E-6	-42.397283
1.55182E-6	-42.396529
1.551865E-6	-42.3905
1.55191E-6	-42.410881
1.551955E-6	-42.51812
1.552E-6	-42.664015
1.552045E-6	-42.746602
1.55209E-6	-42.7597
1.552135E-6	-42.749055
1.55218E-6	-42.740067
1.552225E-6	-42.749873
1.55227E-6	-42.750691
1.552315E-6	-42.71971
1.55236E-6	-42.601904
1.552405E-6	-42.441251
1.55245E-6	-42.370965
1.552495E-6	-42.355997
1.55254E-6	-42.376216
1.552585E-6	-42.377717
1.55263E-6	-42.366469
1.552675E-6	-42.355997
1.55272E-6	-42.398038
1.552765E-6	-42.528991
1.55281E-6	-42.666422
1.552855E-6	-42.726214
1.5529E-6	-42.735173
1.552945E-6	-42.724587
1.55299E-6	-42.727028
1.553035E-6	-42.731099
1.55308E-6	-42.735988
1.553125E-6	-42.68653
1.55317E-6	-42.549252
1.553215E-6	-42.412395
1.55326E-6	-42.351516
1.553305E-6	-42.347041
1.55335E-6	-42.343314
1.553395E-6	-42.346295
1.55344E-6	-42.333641
1.553485E-6	-42.335128
1.55353E-6	-42.388995
1.553575E-6	-42.522775
1.55362E-6	-42.670436
1.553665E-6	-42.714028
1.55371E-6	-42.720523
1.553755E-6	-42.713216
1.5538E-6	-42.714839
1.553845E-6	-42.728656
1.55389E-6	-42.72947
1.553935E-6	-42.660808
1.55398E-6	-42.526659
1.554025E-6	-42.389747
1.55407E-6	-42.34108
1.554115E-6	-42.334384
1.55416E-6	-42.324731
1.554205E-6	-42.315099
1.55425E-6	-42.314359
1.554295E-6	-42.321765
1.55434E-6	-42.395775
1.554385E-6	-42.53833
1.55443E-6	-42.660808
1.554475E-6	-42.708352
1.55452E-6	-42.709162
1.554565E-6	-42.718898
1.55461E-6	-42.72947
1.554655E-6	-42.73762
1.5547E-6	-42.725401
1.554745E-6	-42.648804
1.55479E-6	-42.496459
1.554835E-6	-42.380722
1.55488E-6	-42.332155
1.554925E-6	-42.319542
1.55497E-6	-42.30475
1.555015E-6	-42.300322
1.55506E-6	-42.300322
1.555105E-6	-42.323248
1.55515E-6	-42.403322
1.555195E-6	-42.550815
1.55524E-6	-42.656803
1.555285E-6	-42.708352
1.55533E-6	-42.714839
1.555375E-6	-42.723774
1.55542E-6	-42.722148
1.555465E-6	-42.71971
1.55551E-6	-42.705922
1.555555E-6	-42.620921
1.5556E-6	-42.487979
1.555645E-6	-42.364971
1.55569E-6	-42.321024
1.555735E-6	-42.30475
1.55578E-6	-42.296636
1.555825E-6	-42.299584
1.55587E-6	-42.302535
1.555915E-6	-42.323989
1.55596E-6	-42.401811
1.556005E-6	-42.542228
1.55605E-6	-42.664817
1.556095E-6	-42.709973
1.55614E-6	-42.727028
1.556185E-6	-42.731099
1.55623E-6	-42.725401
1.556275E-6	-42.722961
1.55632E-6	-42.704303
1.556365E-6	-42.636035
1.55641E-6	-42.481822
1.556455E-6	-42.362726
1.5565E-6	-42.314359
1.556545E-6	-42.296636
1.55659E-6	-42.292216
1.556635E-6	-42.290744
1.55668E-6	-42.302535
1.556725E-6	-42.316579
1.55677E-6	-42.395775
1.556815E-6	-42.557853
1.55686E-6	-42.67124
1.556905E-6	-42.722148
1.55695E-6	-42.748237
1.556995E-6	-42.736804
1.55704E-6	-42.742517
1.557085E-6	-42.740067
1.55713E-6	-42.71971
1.557175E-6	-42.642415
1.55722E-6	-42.494916
1.557265E-6	-42.374715
1.55731E-6	-42.327699
1.557355E-6	-42.306227
1.5574E-6	-42.320283
1.557445E-6	-42.31806
1.55749E-6	-42.329926
1.557535E-6	-42.340336
1.55758E-6	-42.425281
1.557625E-6	-42.583757
1.55767E-6	-42.706732
1.557715E-6	-42.751509
1.55776E-6	-42.771194
1.557805E-6	-42.768728
1.55785E-6	-42.755603
1.557895E-6	-42.758061
1.55794E-6	-42.740884
1.557985E-6	-42.663213
1.55803E-6	-42.510371
1.558075E-6	-42.388995
1.55812E-6	-42.335872
1.558165E-6	-42.34108
1.55821E-6	-42.341825
1.558255E-6	-42.35077
1.5583E-6	-42.35525
1.558345E-6	-42.373214
1.55839E-6	-42.453459
1.558435E-6	-42.607442
1.55848E-6	-42.750691
1.558525E-6	-42.793446
1.55857E-6	-42.800889
1.558615E-6	-42.791794
1.55866E-6	-42.785191
1.558705E-6	-42.796753
1.55875E-6	-42.790143
1.558795E-6	-42.705922
1.55884E-6	-42.560201
1.558885E-6	-42.44049
1.55893E-6	-42.400301
1.558975E-6	-42.393514
1.55902E-6	-42.410125
1.559065E-6	-42.417696
1.55911E-6	-42.418454
1.559155E-6	-42.423763
1.5592E-6	-42.512694
1.559245E-6	-42.672043
1.55929E-6	-42.806687
1.559335E-6	-42.839967
1.55938E-6	-42.839967
1.559425E-6	-42.843309
1.55947E-6	-42.843309
1.559515E-6	-42.85335
1.55956E-6	-42.848326
1.559605E-6	-42.772016
1.55965E-6	-42.617746
1.559695E-6	-42.504956
1.55974E-6	-42.460341
1.559785E-6	-42.469534
1.55983E-6	-42.49029
1.559875E-6	-42.48413
1.55992E-6	-42.48413
1.559965E-6	-42.49029
1.56001E-6	-42.58297
1.560055E-6	-42.750691
1.5601E-6	-42.865095
1.560145E-6	-42.903061
1.56019E-6	-42.890369
1.560235E-6	-42.896287
1.56028E-6	-42.906452
1.560325E-6	-42.921744
1.56037E-6	-42.908149
1.560415E-6	-42.830789
1.56046E-6	-42.676867
1.560505E-6	-42.571178
1.56055E-6	-42.53911
1.560595E-6	-42.548471
1.56064E-6	-42.550815
1.560685E-6	-42.552378
1.56073E-6	-42.553159
1.560775E-6	-42.569608
1.56082E-6	-42.660007
1.560865E-6	-42.795926
1.56091E-6	-42.899673
1.560955E-6	-42.935383
1.561E-6	-42.931969
1.561045E-6	-42.935383
1.56109E-6	-42.94992
1.561135E-6	-42.955921
1.56118E-6	-42.947351
1.561225E-6	-42.874345
1.56127E-6	-42.732728
1.561315E-6	-42.634442
1.56136E-6	-42.612987
1.561405E-6	-42.629665
1.56145E-6	-42.617746
1.561495E-6	-42.621715
1.56154E-6	-42.618539
1.561585E-6	-42.628869
1.56163E-6	-42.711594
1.561675E-6	-42.834124
1.56172E-6	-42.936236
1.561765E-6	-42.96107
1.56181E-6	-42.967086
1.561855E-6	-42.976556
1.5619E-6	-42.986047
1.561945E-6	-42.980868
1.56199E-6	-42.971388
1.562035E-6	-42.921744
1.56208E-6	-42.800889
1.562125E-6	-42.707542
1.56217E-6	-42.685724
1.562215E-6	-42.666422
1.56226E-6	-42.66161
1.562305E-6	-42.660808
1.56235E-6	-42.660808
1.562395E-6	-42.674454
1.56244E-6	-42.734358
1.562485E-6	-42.842473
1.56253E-6	-42.939653
1.562575E-6	-42.973972
1.56262E-6	-42.983457
1.562665E-6	-42.998157
1.56271E-6	-43.008563
1.562755E-6	-42.999889
1.5628E-6	-42.992098
1.562845E-6	-42.939653
1.56289E-6	-42.841637
1.562935E-6	-42.7597
1.56298E-6	-42.722148
1.563025E-6	-42.711594
1.56307E-6	-42.700257
1.563115E-6	-42.703493
1.56316E-6	-42.702684
1.563205E-6	-42.722148
1.56325E-6	-42.771194
1.563295E-6	-42.856702
1.56334E-6	-42.942218
1.563385E-6	-42.986911
1.56343E-6	-43.005092
1.563475E-6	-43.013776
1.56352E-6	-43.008563
1.563565E-6	-43.006827
1.56361E-6	-42.999023
1.563655E-6	-42.961929
1.5637E-6	-42.894596
1.563745E-6	-42.810004
1.56379E-6	-42.772838
1.563835E-6	-42.753146
1.56388E-6	-42.749873
1.563925E-6	-42.748237
1.56397E-6	-42.764622
1.564015E-6	-42.776129
1.56406E-6	-42.807516
1.564105E-6	-42.879399
1.56415E-6	-42.961929
1.564195E-6	-43.005959
1.56424E-6	-43.029451
1.564285E-6	-43.032942
1.56433E-6	-43.028579
1.564375E-6	-43.025091
1.56442E-6	-43.016384
1.564465E-6	-43.001623
1.56451E-6	-42.94564
1.564555E-6	-42.860057
1.5646E-6	-42.8208
1.564645E-6	-42.810004
1.56469E-6	-42.807516
1.564735E-6	-42.8208
1.56478E-6	-42.83329
1.564825E-6	-42.839131
1.56487E-6	-42.855864
1.564915E-6	-42.923447
1.56496E-6	-43.009431
1.565005E-6	-43.053071
1.56505E-6	-43.081232
1.565095E-6	-43.085648
1.56514E-6	-43.085648
1.565185E-6	-43.085648
1.56523E-6	-43.089185
1.565275E-6	-43.090954
1.56532E-6	-43.046059
1.565365E-6	-42.973972
1.56541E-6	-42.928558
1.565455E-6	-42.914941
1.5655E-6	-42.918341
1.565545E-6	-42.930263
1.56559E-6	-42.939653
1.565635E-6	-42.943073
1.56568E-6	-42.950777
1.565725E-6	-43.004224
1.56577E-6	-43.086532
1.565815E-6	-43.142583
1.56586E-6	-43.165027
1.565905E-6	-43.15963
1.56595E-6	-43.161428
1.565995E-6	-43.155137
1.56604E-6	-43.161428
1.566085E-6	-43.179452
1.56613E-6	-43.136319
1.566175E-6	-43.072412
1.56622E-6	-43.025963
1.566265E-6	-43.011169
1.56631E-6	-43.022477
1.566355E-6	-43.039933
1.5664E-6	-43.038184
1.566445E-6	-43.044308
1.56649E-6	-43.053948
1.566535E-6	-43.089185
1.56658E-6	-43.161428
1.566625E-6	-43.221194
1.56667E-6	-43.244049
1.566715E-6	-43.251389
1.56676E-6	-43.238553
1.566805E-6	-43.2468
1.56685E-6	-43.263341
1.566895E-6	-43.264262
1.56694E-6	-43.243133
1.566985E-6	-43.183066
1.56703E-6	-43.14527
1.567075E-6	-43.146166
1.56712E-6	-43.161428
1.567165E-6	-43.18397
1.56721E-6	-43.195738
1.567255E-6	-43.210266
1.5673E-6	-43.224843
1.567345E-6	-43.275327
1.56739E-6	-43.350761
1.567435E-6	-43.42275
1.56748E-6	-43.464016
1.567525E-6	-43.485281
1.56757E-6	-43.514448
1.567615E-6	-43.544795
1.56766E-6	-43.595186
1.567705E-6	-43.635121
1.56775E-6	-43.656235
1.567795E-6	-43.647174
1.56784E-6	-43.662287
1.567885E-6	-43.702847
1.56793E-6	-43.77786
1.567975E-6	-43.854191
1.56802E-6	-43.915809
1.568065E-6	-43.988095
1.56811E-6	-44.079343
1.568155E-6	-44.188471
1.5682E-6	-44.340342
1.568245E-6	-44.481842
1.56829E-6	-44.605475
1.568335E-6	-44.713404
1.56838E-6	-44.846561
1.568425E-6	-44.977095
1.56847E-6	-45.122961
1.568515E-6	-45.269512
1.56856E-6	-45.40306
1.568605E-6	-45.520671
1.56865E-6	-45.647929
1.568695E-6	-45.812017
1.56874E-6	-45.989443
1.568785E-6	-46.17983
1.56883E-6	-46.358244
1.568875E-6	-46.542343
1.56892E-6	-46.732546
1.568965E-6	-46.970201
1.56901E-6	-47.207895
1.569055E-6	-47.449688
1.5691E-6	-47.677665
1.569145E-6	-47.872798
1.56919E-6	-48.099486
1.569235E-6	-48.335699
1.56928E-6	-48.560489
1.569325E-6	-48.78112
1.56937E-6	-48.982529
1.569415E-6	-49.175737
1.56946E-6	-49.370422
1.569505E-6	-49.578184
1.56955E-6	-49.800533
1.569595E-6	-50.025699
1.56964E-6	-50.214087
1.569685E-6	-50.421055
1.56973E-6	-50.655015
1.569775E-6	-50.872998
1.56982E-6	-51.108104
1.569865E-6	-51.324736
1.56991E-6	-51.552123
1.569955E-6	-51.741846
1.57E-6	-51.940236
