Wavelength (nm)	Power (dBm)
1.525E-6	-82.335128
1.525045E-6	-82.670436
1.52509E-6	-85.029321
1.525135E-6	-85.103227
1.52518E-6	-86.532559
1.525225E-6	-92.618539
1.52527E-6	-94.921441
1.525315E-6	-120
1.52536E-6	-89.006647
1.525405E-6	-120
1.52545E-6	-92.524328
1.525495E-6	-89.430951
1.52554E-6	-83.828948
1.525585E-6	-81.862856
1.52563E-6	-81.824346
1.525675E-6	-82.555505
1.52572E-6	-81.552744
1.525765E-6	-81.18045
1.52581E-6	-80.627329
1.525855E-6	-80.571985
1.5259E-6	-81.650074
1.525945E-6	-83.82266
1.52599E-6	-96.653452
1.526035E-6	-91.286606
1.52608E-6	-100.726296
1.526125E-6	-87.947956
1.52617E-6	-92.008663
1.526215E-6	-92.936236
1.52626E-6	-88.377344
1.526305E-6	-84.88384
1.52635E-6	-81.360232
1.526395E-6	-80.642409
1.52644E-6	-80.526153
1.526485E-6	-79.698052
1.52653E-6	-80.108172
1.526575E-6	-79.689957
1.52662E-6	-79.846402
1.526665E-6	-80.485168
1.52671E-6	-82.89798
1.526755E-6	-86.324577
1.5268E-6	-120
1.526845E-6	-87.520267
1.52689E-6	-90.45227
1.526935E-6	-120
1.52698E-6	-90.914078
1.527025E-6	-90.886293
1.52707E-6	-82.954206
1.527115E-6	-80.687965
1.52716E-6	-79.511699
1.527205E-6	-78.944898
1.52725E-6	-78.860566
1.527295E-6	-78.642315
1.52734E-6	-77.675121
1.527385E-6	-78.130437
1.52743E-6	-78.443604
1.527475E-6	-81.585154
1.52752E-6	-86.031036
1.527565E-6	-91.671081
1.52761E-6	-90.332952
1.527655E-6	-92.427558
1.5277E-6	-88.591778
1.527745E-6	-92.914941
1.52779E-6	-88.623295
1.527835E-6	-86.480105
1.52788E-6	-80.324052
1.527925E-6	-78.207355
1.52797E-6	-77.999707
1.528015E-6	-77.637147
1.52806E-6	-77.859513
1.528105E-6	-78.013429
1.52815E-6	-77.525177
1.528195E-6	-77.975117
1.52824E-6	-78.745187
1.528285E-6	-82.910695
1.52833E-6	-87.685304
1.528375E-6	-95.846927
1.52842E-6	-96.462761
1.528465E-6	-92.218487
1.52851E-6	-96.734593
1.528555E-6	-90.897492
1.5286E-6	-84.784697
1.528645E-6	-81.069043
1.52869E-6	-77.791078
1.528735E-6	-77.110804
1.52878E-6	-77.440043
1.528825E-6	-76.691805
1.52887E-6	-76.802695
1.528915E-6	-77.097427
1.52896E-6	-77.432823
1.529005E-6	-78.410347
1.52905E-6	-80.932879
1.529095E-6	-86.106567
1.52914E-6	-106.187044
1.529185E-6	-89.943906
1.52923E-6	-93.110465
1.529275E-6	-88.955129
1.52932E-6	-120
1.529365E-6	-89.3968
1.52941E-6	-80.793029
1.529455E-6	-78.133261
1.5295E-6	-77.039933
1.529545E-6	-77.042131
1.52959E-6	-76.466609
1.529635E-6	-76.103025
1.52968E-6	-76.004993
1.529725E-6	-76.625407
1.52977E-6	-77.634627
1.529815E-6	-79.34047
1.52986E-6	-83.862639
1.529905E-6	-94.48428
1.52995E-6	-120
1.529995E-6	-120
1.53004E-6	-88.410347
1.530085E-6	-120
1.53013E-6	-87.442452
1.530175E-6	-82.908997
1.53022E-6	-78.557372
1.530265E-6	-76.651443
1.53031E-6	-76.178028
1.530355E-6	-76.010189
1.5304E-6	-76.208759
1.530445E-6	-76.546263
1.53049E-6	-76.078309
1.530535E-6	-76.767479
1.53058E-6	-78.582368
1.530625E-6	-81.360232
1.53067E-6	-84.870489
1.530715E-6	-90.058589
1.53076E-6	-89.833845
1.530805E-6	-120
1.53085E-6	-120
1.530895E-6	-107.007107
1.53094E-6	-84.347427
1.530985E-6	-79.292235
1.53103E-6	-76.623411
1.531075E-6	-75.675117
1.53112E-6	-75.777385
1.531165E-6	-76.348866
1.53121E-6	-76.324577
1.531255E-6	-75.663902
1.5313E-6	-76.230582
1.531345E-6	-77.703182
1.53139E-6	-79.986991
1.531435E-6	-84.949858
1.53148E-6	-86.250684
1.531525E-6	-93.278097
1.53157E-6	-90.315638
1.531615E-6	-92.438205
1.53166E-6	-90.932879
1.531705E-6	-87.726276
1.53175E-6	-81.31826
1.531795E-6	-77.408842
1.53184E-6	-76.567884
1.531885E-6	-75.751184
1.53193E-6	-76.106567
1.531975E-6	-76.015392
1.53202E-6	-76.067759
1.532065E-6	-75.931193
1.53211E-6	-76.952941
1.532155E-6	-79.211808
1.5322E-6	-82.881085
1.532245E-6	-86.276404
1.53229E-6	-89.948195
1.532335E-6	-120
1.53238E-6	-92.723774
1.532425E-6	-89.669786
1.53247E-6	-97.910215
1.532515E-6	-82.932822
1.53256E-6	-79.013563
1.532605E-6	-76.769543
1.53265E-6	-76.133227
1.532695E-6	-76.094181
1.53274E-6	-76.307841
1.532785E-6	-75.963648
1.53283E-6	-76.265363
1.532875E-6	-76.558043
1.53292E-6	-78.471004
1.532965E-6	-81.117082
1.53301E-6	-87.164726
1.533055E-6	-87.817271
1.5331E-6	-98.164455
1.533145E-6	-120
1.53319E-6	-87.806775
1.533235E-6	-120
1.53328E-6	-84.951215
1.533325E-6	-80.80399
1.53337E-6	-77.297871
1.533415E-6	-76.659486
1.53346E-6	-76.544302
1.533505E-6	-76.703988
1.53355E-6	-77.028963
1.533595E-6	-76.767479
1.53364E-6	-76.685727
1.533685E-6	-78.002448
1.53373E-6	-79.427144
1.533775E-6	-85.025175
1.53382E-6	-90.715529
1.533865E-6	-88.716007
1.53391E-6	-92.222833
1.533955E-6	-89.303319
1.534E-6	-120
1.534045E-6	-89.829667
1.53409E-6	-82.30106
1.534135E-6	-79.325572
1.53418E-6	-77.806775
1.534225E-6	-77.173779
1.53427E-6	-77.629592
1.534315E-6	-77.137681
1.53436E-6	-77.095202
1.534405E-6	-77.281584
1.53445E-6	-77.9588
1.534495E-6	-79.570309
1.53454E-6	-82.235894
1.534585E-6	-91.185583
1.53463E-6	-87.77804
1.534675E-6	-120
1.53472E-6	-120
1.534765E-6	-89.601894
1.53481E-6	-90
1.534855E-6	-86.23423
1.5349E-6	-80.956632
1.534945E-6	-78.996295
1.53499E-6	-78.359447
1.535035E-6	-78.23041
1.53508E-6	-78.032713
1.535125E-6	-77.817271
1.53517E-6	-77.907532
1.535215E-6	-78.353498
1.53526E-6	-79.233596
1.535305E-6	-81.393027
1.53535E-6	-86.948637
1.535395E-6	-96.337639
1.53544E-6	-101.187295
1.535485E-6	-120
1.53553E-6	-91.960652
1.535575E-6	-95.830268
1.53562E-6	-89.783973
1.535665E-6	-84.348608
1.53571E-6	-80.491972
1.535755E-6	-78.758219
1.5358E-6	-78.4649
1.535845E-6	-78.674202
1.53589E-6	-78.833923
1.535935E-6	-78.941493
1.53598E-6	-78.696662
1.536025E-6	-79.237237
1.53607E-6	-81.267375
1.536115E-6	-83.684548
1.53616E-6	-90.143041
1.536205E-6	-91.277272
1.53625E-6	-120
1.536295E-6	-120
1.53634E-6	-120
1.536385E-6	-120
1.53643E-6	-91.125515
1.536475E-6	-82.550033
1.53652E-6	-79.812995
1.536565E-6	-78.820662
1.53661E-6	-79.538952
1.536655E-6	-78.827287
1.5367E-6	-79.442395
1.536745E-6	-78.687022
1.53679E-6	-79.076303
1.536835E-6	-79.75104
1.53688E-6	-82.122562
1.536925E-6	-86.613443
1.53697E-6	-90.124678
1.537015E-6	-96.827727
1.53706E-6	-91.038597
1.537105E-6	-120
1.53715E-6	-120
1.537195E-6	-89.164974
1.53724E-6	-83.971807
1.537285E-6	-81.236667
1.53733E-6	-80.428239
1.537375E-6	-79.665762
1.53742E-6	-79.24453
1.537465E-6	-79.515582
1.53751E-6	-79.118639
1.537555E-6	-79.072794
1.5376E-6	-79.918258
1.537645E-6	-81.747037
1.53769E-6	-84.519793
1.537735E-6	-91.201017
1.53778E-6	-89.535048
1.537825E-6	-104.830682
1.53787E-6	-105.943122
1.537915E-6	-89.677843
1.53796E-6	-88.741935
1.538005E-6	-89.461536
1.53805E-6	-83.615107
1.538095E-6	-81.184442
1.53814E-6	-79.633711
1.538185E-6	-79.550685
1.53823E-6	-79.673812
1.538275E-6	-79.531148
1.53832E-6	-80.09306
1.538365E-6	-79.090369
1.53841E-6	-80.570499
1.538455E-6	-82.905604
1.5385E-6	-87.642191
1.538545E-6	-88.153086
1.53859E-6	-94.644527
1.538635E-6	-120
1.53868E-6	-94.721124
1.538725E-6	-93.151546
1.53877E-6	-90.766523
1.538815E-6	-85.542402
1.53886E-6	-81.37332
1.538905E-6	-79.858997
1.53895E-6	-80.122891
1.538995E-6	-79.288547
1.53904E-6	-80.007824
1.539085E-6	-79.523358
1.53913E-6	-79.503944
1.539175E-6	-79.722428
1.53922E-6	-82.276783
1.539265E-6	-84.754741
1.53931E-6	-87.380238
1.539355E-6	-87.721133
1.5394E-6	-120
1.539445E-6	-90.010436
1.53949E-6	-88.155925
1.539535E-6	-89.37418
1.53958E-6	-89.292235
1.539625E-6	-83.638131
1.53967E-6	-80.80765
1.539715E-6	-79.314431
1.53976E-6	-79.582127
1.539805E-6	-79.344203
1.53985E-6	-79.702105
1.539895E-6	-79.593977
1.53994E-6	-79.442395
1.539985E-6	-80.146184
1.54003E-6	-82.593216
1.540075E-6	-85.377518
1.54012E-6	-95.684754
1.540165E-6	-91.17988
1.54021E-6	-120
1.540255E-6	-91.779628
1.5403E-6	-120
1.540345E-6	-89.154237
1.54039E-6	-85.951663
1.540435E-6	-82.25556
1.54048E-6	-79.863203
1.540525E-6	-79.270153
1.54057E-6	-78.904215
1.540615E-6	-79.175737
1.54066E-6	-78.999743
1.540705E-6	-79.318141
1.54075E-6	-79.446217
1.540795E-6	-81.226287
1.54084E-6	-83.393242
1.540885E-6	-94.615519
1.54093E-6	-89.017025
1.540975E-6	-101.577653
1.54102E-6	-95.252012
1.541065E-6	-96.090649
1.54111E-6	-101.07349
1.541155E-6	-87.097427
1.5412E-6	-83.2615
1.541245E-6	-80.600317
1.54129E-6	-79.219058
1.541335E-6	-79.150664
1.54138E-6	-79.154237
1.541425E-6	-78.271053
1.54147E-6	-78.768019
1.541515E-6	-78.683813
1.54156E-6	-79.24453
1.541605E-6	-80.745332
1.54165E-6	-84.544455
1.541695E-6	-89.605859
1.54174E-6	-92.197547
1.541785E-6	-89.653715
1.54183E-6	-88.814046
1.541875E-6	-120
1.54192E-6	-120
1.541965E-6	-86.250684
1.54201E-6	-81.461802
1.542055E-6	-80.220022
1.5421E-6	-78.716007
1.542145E-6	-78.890738
1.54219E-6	-78.632794
1.542235E-6	-78.784402
1.54228E-6	-78.59492
1.542325E-6	-78.777841
1.54237E-6	-79.817157
1.542415E-6	-82.553159
1.54246E-6	-88.262312
1.542505E-6	-91.91654
1.54255E-6	-90.867691
1.542595E-6	-88.190144
1.54264E-6	-92.743333
1.542685E-6	-120
1.54273E-6	-86.765416
1.542775E-6	-84.57299
1.54282E-6	-80.200876
1.542865E-6	-78.699881
1.54291E-6	-78.777841
1.542955E-6	-78.31208
1.543E-6	-78.224635
1.543045E-6	-78.53252
1.54309E-6	-78.341624
1.543135E-6	-79.168559
1.54318E-6	-80.668165
1.543225E-6	-82.94992
1.54327E-6	-87.552282
1.543315E-6	-88.814046
1.54336E-6	-92.124687
1.543405E-6	-93.293831
1.54345E-6	-120
1.543495E-6	-90.018279
1.54354E-6	-88.300318
1.543585E-6	-82.155967
1.54363E-6	-79.871628
1.543675E-6	-78.623295
1.54372E-6	-78.44057
1.543765E-6	-78.17015
1.54381E-6	-78.256494
1.543855E-6	-78.784402
1.5439E-6	-78.210231
1.543945E-6	-78.728952
1.54399E-6	-80.419142
1.544035E-6	-85.044557
1.54408E-6	-85.931193
1.544125E-6	-91.35845
1.54417E-6	-92.098556
1.544215E-6	-94.705696
1.54426E-6	-94.975729
1.544305E-6	-90.998514
1.54435E-6	-84.93901
1.544395E-6	-81.030882
1.54444E-6	-79.351678
1.544485E-6	-78.071539
1.54453E-6	-78.359447
1.544575E-6	-78.187282
1.54462E-6	-77.931741
1.544665E-6	-78.193008
1.54471E-6	-78.247782
1.544755E-6	-79.20457
1.5448E-6	-81.658337
1.544845E-6	-85.88212
1.54489E-6	-92.476442
1.544935E-6	-120
1.54498E-6	-90.088182
1.545025E-6	-86.983191
1.54507E-6	-80.058149
1.545115E-6	-66.223296
1.54516E-6	-52.418454
1.545205E-6	-46.563945
1.54525E-6	-43.794476
1.545295E-6	-43.291977
1.54534E-6	-43.175841
1.545385E-6	-43.190303
1.54543E-6	-43.167728
1.545475E-6	-43.560541
1.54552E-6	-45.578339
1.545565E-6	-50.278435
1.54561E-6	-60.013484
1.545655E-6	-68.777841
1.5457E-6	-76.090649
1.545745E-6	-81.228591
1.54579E-6	-84.238891
1.545835E-6	-88.880657
1.54588E-6	-120
1.545925E-6	-86.341378
1.54597E-6	-82.668027
1.546015E-6	-79.792245
1.54606E-6	-78.16161
1.546105E-6	-78.416375
1.54615E-6	-78.291518
1.546195E-6	-77.634627
1.54624E-6	-77.79369
1.546285E-6	-78.401322
1.54633E-6	-79.003194
1.546375E-6	-80.231
1.54642E-6	-83.858413
1.546465E-6	-90.420577
1.54651E-6	-95.055671
1.546555E-6	-88.732194
1.5466E-6	-93.001623
1.546645E-6	-120
1.54669E-6	-87.929045
1.546735E-6	-86.867657
1.54678E-6	-81.359044
1.546825E-6	-79.28118
1.54687E-6	-78.046539
1.546915E-6	-78.099486
1.54696E-6	-78.158766
1.547005E-6	-78.655041
1.54705E-6	-78.127614
1.547095E-6	-78.703101
1.54714E-6	-79.150664
1.547185E-6	-81.244757
1.54723E-6	-85.807053
1.547275E-6	-89.909743
1.54732E-6	-88.279812
1.547365E-6	-94.213608
1.54741E-6	-90.568024
1.547455E-6	-88.138916
1.5475E-6	-90.621312
1.547545E-6	-84.214754
1.54759E-6	-81.048538
1.547635E-6	-79.065783
1.54768E-6	-78.173001
1.547725E-6	-78.227522
1.54777E-6	-78.207355
1.547815E-6	-78.17015
1.54786E-6	-78.227522
1.547905E-6	-78.227522
1.54795E-6	-79.469216
1.547995E-6	-82.680086
1.54804E-6	-86.117211
1.548085E-6	-87.532553
1.54813E-6	-90.730405
1.548175E-6	-93.605135
1.54822E-6	-120
1.548265E-6	-90.000869
1.54831E-6	-96.699923
1.548355E-6	-83.997897
1.5484E-6	-80.492458
1.548445E-6	-78.887375
1.54849E-6	-77.634627
1.548535E-6	-77.221617
1.54858E-6	-77.891466
1.548625E-6	-78.735439
1.54867E-6	-77.78325
1.548715E-6	-78.303256
1.54876E-6	-80.008259
1.548805E-6	-82.76955
1.54885E-6	-85.485206
1.548895E-6	-95.845258
1.54894E-6	-88.362425
1.548985E-6	-120
1.54903E-6	-87.057543
1.549075E-6	-120
1.54912E-6	-94.212462
1.549165E-6	-82.322506
1.54921E-6	-79.295927
1.549255E-6	-78.563608
1.5493E-6	-78.173001
1.549345E-6	-77.765041
1.54939E-6	-77.728849
1.549435E-6	-78.383326
1.54948E-6	-77.801536
1.549525E-6	-78.374356
1.54957E-6	-80.366845
1.549615E-6	-83.2413
1.54966E-6	-87.827793
1.549705E-6	-93.78616
1.54975E-6	-120
1.549795E-6	-89.75925
1.54984E-6	-83.515424
1.549885E-6	-74.937656
1.54993E-6	-58.827287
1.549975E-6	-48.787685
1.55002E-6	-44.392567
1.550065E-6	-43.207539
1.55011E-6	-43.022477
1.550155E-6	-42.979143
1.5502E-6	-42.943073
1.550245E-6	-43.000756
1.55029E-6	-43.802807
1.550335E-6	-46.751005
1.55038E-6	-53.098926
1.550425E-6	-62.006595
1.55047E-6	-70.937188
1.550515E-6	-78.374356
1.55056E-6	-83.778896
1.550605E-6	-87.121983
1.55065E-6	-92.922595
1.550695E-6	-92.171692
1.55074E-6	-84.686488
1.550785E-6	-80.109063
1.55083E-6	-78.683813
1.550875E-6	-77.915586
1.55092E-6	-77.870138
1.550965E-6	-77.139929
1.55101E-6	-77.846268
1.551055E-6	-78.184422
1.5511E-6	-78.282735
1.551145E-6	-79.706162
1.55119E-6	-80.979427
1.551235E-6	-85.531523
1.55128E-6	-85.800443
1.551325E-6	-88.273971
1.55137E-6	-106.647427
1.551415E-6	-100.514892
1.55146E-6	-96.094181
1.551505E-6	-93.515424
1.55155E-6	-84.134127
1.551595E-6	-80.070932
1.55164E-6	-78.256494
1.551685E-6	-77.649768
1.55173E-6	-77.710866
1.551775E-6	-78.374356
1.55182E-6	-77.404061
1.551865E-6	-77.870138
1.55191E-6	-78.116341
1.551955E-6	-79.30702
1.552E-6	-81.548399
1.552045E-6	-84.77295
1.55209E-6	-92.677671
1.552135E-6	-87.639669
1.55218E-6	-90.617806
1.552225E-6	-120
1.55227E-6	-97.373117
1.552315E-6	-88.010681
1.55236E-6	-83.707943
1.552405E-6	-79.613798
1.55245E-6	-77.396901
1.552495E-6	-77.929045
1.55254E-6	-77.440043
1.552585E-6	-77.675121
1.55263E-6	-77.592012
1.552675E-6	-78.136088
1.55272E-6	-77.867479
1.552765E-6	-79.393022
1.55281E-6	-82.812493
1.552855E-6	-86.823545
1.5529E-6	-95.867002
1.552945E-6	-88.22175
1.55299E-6	-120
1.553035E-6	-91.739252
1.55308E-6	-86.453154
1.553125E-6	-88.777841
1.55317E-6	-83.185778
1.553215E-6	-79.168559
1.55326E-6	-78.428456
1.553305E-6	-77.765041
1.55335E-6	-78.288588
1.553395E-6	-77.840982
1.55344E-6	-77.423214
1.553485E-6	-77.584535
1.55353E-6	-77.754669
1.553575E-6	-79.804683
1.55362E-6	-83.449577
1.553665E-6	-90.072256
1.55371E-6	-94.854522
1.553755E-6	-95.104634
1.5538E-6	-90.766005
1.553845E-6	-98.975663
1.55389E-6	-82.526659
1.553935E-6	-86.103025
1.55398E-6	-81.705676
1.554025E-6	-79.262816
1.55407E-6	-77.276942
1.554115E-6	-77.56962
1.55416E-6	-77.368375
1.554205E-6	-77.342391
1.55425E-6	-77.217038
1.554295E-6	-77.915586
1.55434E-6	-77.644716
1.554385E-6	-79.389247
1.55443E-6	-82.889524
1.554475E-6	-88.830604
1.55452E-6	-103.025963
1.554565E-6	-88.992849
1.55461E-6	-95.121549
1.554655E-6	-99.527251
1.5547E-6	-95.639965
1.554745E-6	-87.430418
1.55479E-6	-80.938266
1.554835E-6	-78.655041
1.55488E-6	-77.685304
1.554925E-6	-77.999707
1.55497E-6	-77.602002
1.555015E-6	-77.775437
1.55506E-6	-77.18285
1.555105E-6	-77.582046
1.55515E-6	-77.809397
1.555195E-6	-79.850597
1.55524E-6	-82.565686
1.555285E-6	-94.92279
1.55533E-6	-93.088301
1.555375E-6	-89.197344
1.55542E-6	-120
1.555465E-6	-89.179331
1.55551E-6	-90.818648
1.555555E-6	-86.212388
1.5556E-6	-81.307096
1.555645E-6	-78.265224
1.55569E-6	-77.151183
1.555735E-6	-76.815193
1.55578E-6	-77.413627
1.555825E-6	-76.983191
1.55587E-6	-77.281584
1.555915E-6	-77.361273
1.55596E-6	-78.291518
1.556005E-6	-79.613798
1.55605E-6	-84.709548
1.556095E-6	-90.861332
1.55614E-6	-88.837244
1.556185E-6	-86.259853
1.55623E-6	-120
1.556275E-6	-89.104481
1.55632E-6	-93.936186
1.556365E-6	-86.888822
1.55641E-6	-80.976707
1.556455E-6	-78.389316
1.5565E-6	-77.363639
1.556545E-6	-77.617029
1.55659E-6	-77.230789
1.556635E-6	-76.78816
1.55668E-6	-77.537477
1.556725E-6	-77.746907
1.55677E-6	-78.458805
1.556815E-6	-79.779843
1.55686E-6	-83.068889
1.556905E-6	-90.634863
1.55695E-6	-120
1.556995E-6	-120
1.55704E-6	-98.107905
1.557085E-6	-120
1.55713E-6	-88.362425
1.557175E-6	-83.72327
1.55722E-6	-80.335297
1.557265E-6	-78.141746
1.55731E-6	-77.399286
1.557355E-6	-77.265357
1.5574E-6	-77.14893
1.557445E-6	-77.007107
1.55749E-6	-77.473897
1.557535E-6	-76.85922
1.55758E-6	-77.770236
1.557625E-6	-79.884296
1.55767E-6	-83.87534
1.557715E-6	-90.835461
1.55776E-6	-97.859513
1.557805E-6	-92.131067
1.55785E-6	-92.177424
1.557895E-6	-89.503944
1.55794E-6	-89.771594
1.557985E-6	-85.551748
1.55803E-6	-80.843364
1.558075E-6	-78.218867
1.55812E-6	-77.392133
1.558165E-6	-77.311881
1.55821E-6	-77.086311
1.558255E-6	-77.577071
1.5583E-6	-77.878124
1.558345E-6	-77.442452
1.55839E-6	-78.233301
1.558435E-6	-79.681877
1.55848E-6	-83.533023
1.558525E-6	-90.187252
1.55857E-6	-108.820662
1.558615E-6	-102.053726
1.55866E-6	-92.41997
1.558705E-6	-91.199299
1.55875E-6	-95.188441
1.558795E-6	-87.16925
1.55884E-6	-81.399017
1.558885E-6	-78.661419
1.55893E-6	-77.700623
1.558975E-6	-77.833064
1.55902E-6	-77.830428
1.559065E-6	-77.196493
1.55911E-6	-77.430418
1.559155E-6	-77.670039
1.5592E-6	-79.034376
1.559245E-6	-80.453716
1.55929E-6	-81.923297
1.559335E-6	-87.525177
1.55938E-6	-92.636035
1.559425E-6	-92.432118
1.55947E-6	-120
1.559515E-6	-91.461193
1.55956E-6	-92.550033
1.559605E-6	-85.788899
1.55965E-6	-80.849697
1.559695E-6	-78.938091
1.55974E-6	-77.966951
1.559785E-6	-77.649768
1.55983E-6	-77.274622
1.559875E-6	-77.79369
1.55992E-6	-77.420815
1.559965E-6	-78.035475
1.56001E-6	-78.309136
1.560055E-6	-80.839674
1.5601E-6	-85.269512
1.560145E-6	-91.017137
1.56019E-6	-91.838913
1.560235E-6	-100.429677
1.56028E-6	-90.295601
1.560325E-6	-90.595333
1.56037E-6	-120
1.560415E-6	-85.991168
1.56046E-6	-82.088008
1.560505E-6	-78.850556
1.56055E-6	-77.775437
1.560595E-6	-78.677403
1.56064E-6	-77.700623
1.560685E-6	-77.695511
1.56073E-6	-78.843895
1.560775E-6	-77.920965
1.56082E-6	-78.807441
1.560865E-6	-80.600317
1.56091E-6	-83.938337
1.560955E-6	-120
1.561E-6	-89.115095
1.561045E-6	-87.817271
1.56109E-6	-95.62091
1.561135E-6	-120
1.56118E-6	-89.775716
1.561225E-6	-85.772461
1.56127E-6	-81.805219
1.561315E-6	-79.129288
1.56136E-6	-78.85389
1.561405E-6	-78.41336
1.56145E-6	-78.664611
1.561495E-6	-78.08549
1.56154E-6	-78.22175
1.561585E-6	-78.091083
1.56163E-6	-78.794261
1.561675E-6	-80.676785
1.56172E-6	-84.135252
1.561765E-6	-88.810742
1.56181E-6	-93.148855
1.561855E-6	-120
1.5619E-6	-88.467951
1.561945E-6	-95.43027
1.56199E-6	-92.728656
1.562035E-6	-87.447275
1.56208E-6	-82.880241
1.562125E-6	-79.804683
1.56217E-6	-79.450041
1.562215E-6	-78.680607
1.56226E-6	-78.709549
1.562305E-6	-78.999743
1.56235E-6	-79.108016
1.562395E-6	-78.71924
1.56244E-6	-79.35542
1.562485E-6	-81.728247
1.56253E-6	-83.472703
1.562575E-6	-120
1.56262E-6	-120
1.562665E-6	-91.324736
1.56271E-6	-91.049091
1.562755E-6	-98.024438
1.5628E-6	-88.17015
1.562845E-6	-89.484616
1.56289E-6	-82.921744
1.562935E-6	-84.360445
1.56298E-6	-79.058784
1.563025E-6	-78.979095
1.56307E-6	-79.200955
1.563115E-6	-79.503944
1.56316E-6	-79.566377
1.563205E-6	-79.229957
1.56325E-6	-78.975663
1.563295E-6	-81.136221
1.56334E-6	-83.164127
1.563385E-6	-91.630433
1.56343E-6	-95.003129
1.563475E-6	-120
1.56352E-6	-120
1.563565E-6	-85.696024
1.56361E-6	-98.840568
1.563655E-6	-90.267336
1.5637E-6	-85.292956
1.563745E-6	-80.987052
1.56379E-6	-80.466753
1.563835E-6	-79.500071
1.56388E-6	-79.393022
1.563925E-6	-81.0122
1.56397E-6	-80.242466
1.564015E-6	-80.223221
1.56406E-6	-79.465374
1.564105E-6	-80.932879
1.56415E-6	-84.641997
1.564195E-6	-87.796304
1.56424E-6	-100.143041
1.564285E-6	-92.656003
1.56433E-6	-120
1.564375E-6	-90.224136
1.56442E-6	-93.02422
1.564465E-6	-89.08333
1.56451E-6	-85.984272
1.564555E-6	-83.573377
1.5646E-6	-80.875122
1.564645E-6	-81.057947
1.56469E-6	-80.840201
1.564735E-6	-80.583892
1.56478E-6	-81.254602
1.564825E-6	-80.416751
1.56487E-6	-80.921052
1.564915E-6	-81.949752
1.56496E-6	-83.670368
1.565005E-6	-90.304443
1.56505E-6	-94.260846
1.565095E-6	-120
1.56514E-6	-89.377942
1.565185E-6	-97.162466
1.56523E-6	-92.071882
1.565275E-6	-96.627405
1.56532E-6	-88.241984
1.565365E-6	-83.593198
1.56541E-6	-81.852199
1.565455E-6	-81.769825
1.5655E-6	-80.910863
1.565545E-6	-81.327683
1.56559E-6	-81.645631
1.565635E-6	-80.76756
1.56568E-6	-80.776898
1.565725E-6	-83.816381
1.56577E-6	-85.479068
1.565815E-6	-87.564659
1.56586E-6	-93.91474
1.565905E-6	-87.196493
1.56595E-6	-87.840982
1.565995E-6	-88.356471
1.56604E-6	-90.697643
1.566085E-6	-88.725712
1.56613E-6	-86.371407
1.566175E-6	-86.825635
1.56622E-6	-81.166793
1.566265E-6	-82.347041
1.56631E-6	-81.73666
1.566355E-6	-81.019883
1.5664E-6	-81.438151
1.566445E-6	-82.126812
1.56649E-6	-82.218487
1.566535E-6	-83.435185
1.56658E-6	-84.46967
1.566625E-6	-88.353498
1.56667E-6	-91.408016
1.566715E-6	-95.565805
1.56676E-6	-95.550189
1.566805E-6	-120
1.56685E-6	-120
1.566895E-6	-120
1.56694E-6	-89.93962
1.566985E-6	-85.086383
1.56703E-6	-84.595454
1.567075E-6	-83.113133
1.56712E-6	-83.012037
1.567165E-6	-82.738435
1.56721E-6	-82.644809
1.567255E-6	-82.428318
1.5673E-6	-82.071183
1.567345E-6	-83.500813
1.56739E-6	-85.477534
1.567435E-6	-87.223908
1.56748E-6	-90.961507
1.567525E-6	-91.643728
1.56757E-6	-88.341624
1.567615E-6	-120
1.56766E-6	-91.28252
1.567705E-6	-98.038238
1.56775E-6	-103.460161
1.567795E-6	-85.710557
1.56784E-6	-85.269512
1.567885E-6	-83.577334
1.56793E-6	-83.165027
1.567975E-6	-82.25629
1.56802E-6	-83.027707
1.568065E-6	-83.543813
1.56811E-6	-83.498868
1.568155E-6	-83.436143
1.5682E-6	-84.952574
1.568245E-6	-89.653715
1.56829E-6	-98.513973
1.568335E-6	-87.90217
1.56838E-6	-91.227439
1.568425E-6	-89.139963
1.56847E-6	-87.637147
1.568515E-6	-94.780778
1.56856E-6	-95.533075
1.568605E-6	-95.141367
1.56865E-6	-84.664821
1.568695E-6	-83.2413
1.56874E-6	-83.976144
1.568785E-6	-85.221555
1.56883E-6	-83.349822
1.568875E-6	-86.011923
1.56892E-6	-83.896593
1.568965E-6	-84.031831
1.56901E-6	-84.197595
1.569055E-6	-87.079656
1.5691E-6	-87.599502
1.569145E-6	-95.187007
1.56919E-6	-91.37809
1.569235E-6	-92.804201
1.56928E-6	-120
1.569325E-6	-120
1.56937E-6	-120
1.569415E-6	-96.039751
1.56946E-6	-84.645793
1.569505E-6	-86.468535
1.56955E-6	-84.067139
1.569595E-6	-85.252012
1.56964E-6	-83.658251
1.569685E-6	-83.541849
1.56973E-6	-85.16698
1.569775E-6	-84.639468
1.56982E-6	-86.855008
1.569865E-6	-86.621416
1.56991E-6	-94.791236
1.569955E-6	-120
1.57E-6	-120
