Wavelength (nm)	Power (dBm)
1.525E-6	-50.257186
1.525045E-6	-50.161483
1.52509E-6	-50.128255
1.525135E-6	-50.185892
1.52518E-6	-50.230085
1.525225E-6	-50.191788
1.52527E-6	-50.109063
1.525315E-6	-50.024389
1.52536E-6	-49.93962
1.525405E-6	-49.842212
1.52545E-6	-49.710223
1.525495E-6	-49.469216
1.52554E-6	-49.122186
1.525585E-6	-48.860566
1.52563E-6	-48.706324
1.525675E-6	-48.579235
1.52572E-6	-48.449678
1.525765E-6	-48.332739
1.52581E-6	-48.239087
1.525855E-6	-48.250684
1.5259E-6	-48.443604
1.525945E-6	-48.687022
1.52599E-6	-48.76475
1.526035E-6	-48.738686
1.52608E-6	-48.680607
1.526125E-6	-48.607508
1.52617E-6	-48.535619
1.526215E-6	-48.422411
1.52626E-6	-48.138916
1.526305E-6	-47.662426
1.52635E-6	-47.251497
1.526395E-6	-47.048729
1.52644E-6	-46.92718
1.526485E-6	-46.836102
1.52653E-6	-46.753061
1.526575E-6	-46.675615
1.52662E-6	-46.679657
1.526665E-6	-46.940041
1.52671E-6	-47.373117
1.526755E-6	-47.654827
1.5268E-6	-47.703182
1.526845E-6	-47.662426
1.52689E-6	-47.609509
1.526935E-6	-47.549811
1.52698E-6	-47.473897
1.527025E-6	-47.196493
1.52707E-6	-46.581699
1.527115E-6	-45.893915
1.52716E-6	-45.606673
1.527205E-6	-45.526869
1.52725E-6	-45.466817
1.527295E-6	-45.401554
1.52734E-6	-45.341712
1.527385E-6	-45.370034
1.52743E-6	-45.726762
1.527475E-6	-46.377061
1.52752E-6	-46.880343
1.527565E-6	-46.985359
1.52761E-6	-46.974526
1.527655E-6	-46.981023
1.5277E-6	-46.918626
1.527745E-6	-46.882461
1.52779E-6	-46.611453
1.527835E-6	-45.861975
1.52788E-6	-45.05011
1.527925E-6	-44.678829
1.52797E-6	-44.55932
1.528015E-6	-44.49527
1.52806E-6	-44.476969
1.528105E-6	-44.447846
1.52815E-6	-44.468455
1.528195E-6	-44.766438
1.52824E-6	-45.520671
1.528285E-6	-46.307841
1.52833E-6	-46.633402
1.528375E-6	-46.655462
1.52842E-6	-46.647427
1.528465E-6	-46.629403
1.52851E-6	-46.617428
1.528555E-6	-46.42637
1.5286E-6	-45.700863
1.528645E-6	-44.749552
1.52869E-6	-44.171415
1.528735E-6	-44.005536
1.52878E-6	-43.960982
1.528825E-6	-44.026339
1.52887E-6	-43.943718
1.528915E-6	-43.934037
1.52896E-6	-44.173686
1.529005E-6	-44.91201
1.52905E-6	-45.919297
1.529095E-6	-46.420652
1.52914E-6	-46.532559
1.529185E-6	-46.53647
1.52923E-6	-46.530605
1.529275E-6	-46.528652
1.52932E-6	-46.456994
1.529365E-6	-45.888856
1.52941E-6	-44.870489
1.529455E-6	-44.087127
1.5295E-6	-43.81429
1.529545E-6	-43.760275
1.52959E-6	-43.754085
1.529635E-6	-43.724293
1.52968E-6	-43.706924
1.529725E-6	-43.867926
1.52977E-6	-44.459957
1.529815E-6	-45.512937
1.52986E-6	-46.302277
1.529905E-6	-46.499459
1.52995E-6	-46.530605
1.529995E-6	-46.513058
1.53004E-6	-46.532559
1.530085E-6	-46.509168
1.53013E-6	-46.169031
1.530175E-6	-45.175552
1.53022E-6	-44.243504
1.530265E-6	-43.820566
1.53031E-6	-43.721223
1.530355E-6	-43.698774
1.5304E-6	-43.704885
1.530445E-6	-43.688607
1.53049E-6	-43.725317
1.530535E-6	-44.174821
1.53058E-6	-45.15131
1.530625E-6	-46.106567
1.53067E-6	-46.476245
1.530715E-6	-46.538427
1.53076E-6	-46.544302
1.530805E-6	-46.563945
1.53085E-6	-46.544302
1.530895E-6	-46.394066
1.53094E-6	-45.575202
1.530985E-6	-44.483061
1.53103E-6	-43.864753
1.531075E-6	-43.694704
1.53112E-6	-43.701828
1.531165E-6	-43.696738
1.53121E-6	-43.692671
1.531255E-6	-43.739678
1.5313E-6	-43.976144
1.531345E-6	-44.76774
1.53139E-6	-45.848596
1.531435E-6	-46.462761
1.53148E-6	-46.579723
1.531525E-6	-46.613443
1.53157E-6	-46.617428
1.531615E-6	-46.639407
1.53166E-6	-46.542343
1.531705E-6	-46.015392
1.53175E-6	-44.956651
1.531795E-6	-44.146521
1.53184E-6	-43.839448
1.531885E-6	-43.82266
1.53193E-6	-43.818473
1.531975E-6	-43.8122
1.53202E-6	-43.860525
1.532065E-6	-43.965308
1.53211E-6	-44.518564
1.532155E-6	-45.561115
1.5322E-6	-46.414941
1.532245E-6	-46.667543
1.53229E-6	-46.726411
1.532335E-6	-46.722325
1.53238E-6	-46.773673
1.532425E-6	-46.73869
1.53247E-6	-46.455074
1.532515E-6	-45.54863
1.53256E-6	-44.549404
1.532605E-6	-44.063817
1.53265E-6	-43.963145
1.532695E-6	-43.94695
1.53274E-6	-43.959901
1.532785E-6	-44.005536
1.53283E-6	-44.087127
1.532875E-6	-44.446637
1.53292E-6	-45.349147
1.532965E-6	-46.346993
1.53301E-6	-46.827727
1.533055E-6	-46.899443
1.5331E-6	-46.93575
1.533145E-6	-46.968039
1.53319E-6	-46.981023
1.533235E-6	-46.852903
1.53328E-6	-46.256183
1.533325E-6	-45.26513
1.53337E-6	-44.601714
1.533415E-6	-44.409317
1.53346E-6	-44.397346
1.533505E-6	-44.392567
1.53355E-6	-44.446637
1.533595E-6	-44.497716
1.53364E-6	-44.671183
1.533685E-6	-45.306199
1.53373E-6	-46.265363
1.533775E-6	-46.974526
1.53382E-6	-47.173779
1.533865E-6	-47.2262
1.53391E-6	-47.244583
1.533955E-6	-47.23768
1.534E-6	-47.249191
1.534045E-6	-46.944337
1.53409E-6	-46.104795
1.534135E-6	-45.326879
1.53418E-6	-44.970269
1.534225E-6	-44.905286
1.53427E-6	-44.92819
1.534315E-6	-44.990778
1.53436E-6	-44.977095
1.534405E-6	-45.07519
1.53445E-6	-45.428754
1.534495E-6	-46.258017
1.53454E-6	-47.115272
1.534585E-6	-47.473897
1.53463E-6	-47.547342
1.534675E-6	-47.56962
1.53472E-6	-47.572102
1.534765E-6	-47.604503
1.53481E-6	-47.50557
1.534855E-6	-46.92932
1.5349E-6	-46.129663
1.534945E-6	-45.56737
1.53499E-6	-45.442418
1.535035E-6	-45.443939
1.53508E-6	-45.50059
1.535125E-6	-45.533075
1.53517E-6	-45.553308
1.535215E-6	-45.707323
1.53526E-6	-46.324577
1.535305E-6	-47.185121
1.53535E-6	-47.723704
1.535395E-6	-47.856861
1.53544E-6	-47.880789
1.535485E-6	-47.838341
1.53553E-6	-47.624563
1.535575E-6	-46.528652
1.53562E-6	-37.664962
1.535665E-6	-26.714166
1.53571E-6	-21.726307
1.535755E-6	-19.75925
1.5358E-6	-19.381707
1.535845E-6	-19.408154
1.53589E-6	-19.484616
1.535935E-6	-19.625735
1.53598E-6	-20.194513
1.536025E-6	-22.545348
1.53607E-6	-28.259402
1.536115E-6	-38.517059
1.53616E-6	-45.187007
1.536205E-6	-47.481185
1.53625E-6	-47.988761
1.536295E-6	-48.116341
1.53634E-6	-48.167302
1.536385E-6	-48.107905
1.53643E-6	-47.659892
1.536475E-6	-46.903698
1.53652E-6	-46.382722
1.536565E-6	-46.243364
1.53661E-6	-46.243364
1.536655E-6	-46.27088
1.5367E-6	-46.265363
1.536745E-6	-46.274562
1.53679E-6	-46.411138
1.536835E-6	-46.897316
1.53688E-6	-47.652297
1.536925E-6	-48.181564
1.53697E-6	-48.300318
1.537015E-6	-48.303256
1.53706E-6	-48.279812
1.537105E-6	-48.088285
1.53715E-6	-47.037737
1.537195E-6	-39.076303
1.53724E-6	-26.530605
1.537285E-6	-21.503963
1.53733E-6	-19.500071
1.537375E-6	-19.090369
1.53742E-6	-19.062282
1.537465E-6	-19.079815
1.53751E-6	-19.115095
1.537555E-6	-19.649707
1.5376E-6	-21.93142
1.537645E-6	-27.642191
1.53769E-6	-37.920965
1.537735E-6	-44.925489
1.53778E-6	-47.579558
1.537825E-6	-48.213108
1.53787E-6	-48.359447
1.537915E-6	-48.392314
1.53796E-6	-48.347557
1.538005E-6	-47.907532
1.53805E-6	-47.160207
1.538095E-6	-46.633402
1.53814E-6	-46.483969
1.538185E-6	-46.447401
1.53823E-6	-46.447401
1.538275E-6	-46.441655
1.53832E-6	-46.434006
1.538365E-6	-46.546263
1.53841E-6	-46.9897
1.538455E-6	-47.726276
1.5385E-6	-48.250684
1.538545E-6	-48.38632
1.53859E-6	-48.389316
1.538635E-6	-48.374356
1.53868E-6	-48.187282
1.538725E-6	-47.274622
1.53877E-6	-40.121997
1.538815E-6	-27.119745
1.53886E-6	-21.694755
1.538905E-6	-19.542859
1.53895E-6	-19.010104
1.538995E-6	-18.91435
1.53904E-6	-18.8706
1.539085E-6	-18.877302
1.53913E-6	-19.270153
1.539175E-6	-21.31826
1.53922E-6	-26.627405
1.539265E-6	-36.38461
1.53931E-6	-44.30392
1.539355E-6	-47.377863
1.5394E-6	-48.124793
1.539445E-6	-48.27689
1.53949E-6	-48.31208
1.539535E-6	-48.265224
1.53958E-6	-47.827793
1.539625E-6	-47.081873
1.53967E-6	-46.513058
1.539715E-6	-46.311555
1.53976E-6	-46.267201
1.539805E-6	-46.248853
1.53985E-6	-46.236056
1.539895E-6	-46.245193
1.53994E-6	-46.333903
1.539985E-6	-46.74895
1.54003E-6	-47.493361
1.540075E-6	-48.04931
1.54012E-6	-48.218867
1.540165E-6	-48.23041
1.54021E-6	-48.207355
1.540255E-6	-48.065971
1.5403E-6	-47.354183
1.540345E-6	-41.950432
1.54039E-6	-28.639139
1.540435E-6	-22.370965
1.54048E-6	-19.854795
1.540525E-6	-19.161392
1.54057E-6	-19.027427
1.540615E-6	-18.972234
1.54066E-6	-18.948306
1.540705E-6	-19.233596
1.54075E-6	-21.017137
1.540795E-6	-25.702477
1.54084E-6	-34.982563
1.540885E-6	-43.522259
1.54093E-6	-47.013652
1.540975E-6	-47.867479
1.54102E-6	-48.027194
1.541065E-6	-48.068754
1.54111E-6	-48.021683
1.541155E-6	-47.672579
1.5412E-6	-46.905828
1.541245E-6	-46.243364
1.54129E-6	-45.963648
1.541335E-6	-45.91082
1.54138E-6	-45.880438
1.541425E-6	-45.877075
1.54147E-6	-45.873715
1.541515E-6	-45.9176
1.54156E-6	-46.27088
1.541605E-6	-47.018021
1.54165E-6	-47.692957
1.541695E-6	-47.942545
1.54174E-6	-47.988761
1.541785E-6	-47.961515
1.54183E-6	-47.843624
1.541875E-6	-47.328283
1.54192E-6	-43.993538
1.541965E-6	-30.336705
1.54201E-6	-23.053948
1.542055E-6	-20.051112
1.5421E-6	-19.168559
1.542145E-6	-18.985966
1.54219E-6	-18.944898
1.542235E-6	-18.910969
1.54228E-6	-19.0309
1.542325E-6	-20.303046
1.54237E-6	-24.076012
1.542415E-6	-32.292216
1.54246E-6	-41.593294
1.542505E-6	-46.280091
1.54255E-6	-47.503126
1.542595E-6	-47.744323
1.54264E-6	-47.796304
1.542685E-6	-47.798919
1.54273E-6	-47.56962
1.542775E-6	-46.819367
1.54282E-6	-46.053732
1.542865E-6	-45.683147
1.54291E-6	-45.597208
1.542955E-6	-45.600361
1.543E-6	-45.590909
1.543045E-6	-45.581478
1.54309E-6	-45.58462
1.543135E-6	-45.83859
1.54318E-6	-46.520848
1.543225E-6	-47.342391
1.54327E-6	-47.71343
1.543315E-6	-47.765041
1.54336E-6	-47.744323
1.543405E-6	-47.682756
1.54345E-6	-47.370745
1.543495E-6	-45.647929
1.54354E-6	-34.005536
1.543585E-6	-24.714689
1.54363E-6	-20.800855
1.543675E-6	-19.37418
1.54372E-6	-19.118639
1.543765E-6	-19.065783
1.54381E-6	-19.034376
1.543855E-6	-19.076303
1.5439E-6	-19.858997
1.543945E-6	-22.692177
1.54399E-6	-29.41574
1.544035E-6	-39.617774
1.54408E-6	-45.323919
1.544125E-6	-47.166988
1.54417E-6	-47.567139
1.544215E-6	-47.654827
1.54426E-6	-47.692957
1.544305E-6	-47.549811
1.54435E-6	-46.931463
1.544395E-6	-46.069515
1.54444E-6	-45.561115
1.544485E-6	-45.433304
1.54453E-6	-45.416644
1.544575E-6	-45.413622
1.54462E-6	-45.40306
1.544665E-6	-45.406075
1.54471E-6	-45.550189
1.544755E-6	-46.126102
1.5448E-6	-46.985359
1.544845E-6	-47.522722
1.54489E-6	-47.647241
1.544935E-6	-47.652297
1.54498E-6	-47.629592
1.545025E-6	-47.46662
1.54507E-6	-46.577748
1.545115E-6	-39.010104
1.54516E-6	-26.74895
1.545205E-6	-21.78552
1.54525E-6	-19.738755
1.545295E-6	-19.292235
1.54534E-6	-19.200955
1.545385E-6	-19.172146
1.54543E-6	-19.175737
1.545475E-6	-19.586073
1.54552E-6	-21.624116
1.545565E-6	-26.593576
1.54561E-6	-36.013657
1.545655E-6	-43.923306
1.5457E-6	-46.798537
1.545745E-6	-47.456937
1.54579E-6	-47.604503
1.545835E-6	-47.647241
1.54588E-6	-47.609509
1.545925E-6	-47.210179
1.54597E-6	-46.365761
1.546015E-6	-45.67191
1.54606E-6	-45.437858
1.546105E-6	-45.395532
1.54615E-6	-45.379016
1.546195E-6	-45.36555
1.54624E-6	-45.36555
1.546285E-6	-45.428754
1.54633E-6	-45.818645
1.546375E-6	-46.633402
1.54642E-6	-47.347104
1.546465E-6	-47.612014
1.54651E-6	-47.642191
1.546555E-6	-47.644716
1.5466E-6	-47.584535
1.546645E-6	-47.176045
1.54669E-6	-44.336804
1.546735E-6	-31.395422
1.54678E-6	-23.72839
1.546825E-6	-20.58588
1.54687E-6	-19.578184
1.546915E-6	-19.404366
1.54696E-6	-19.366666
1.547005E-6	-19.359166
1.54705E-6	-19.496202
1.547095E-6	-20.590355
1.54714E-6	-23.99136
1.547185E-6	-31.344815
1.54723E-6	-40.997968
1.547275E-6	-45.992894
1.54732E-6	-47.304871
1.547365E-6	-47.579558
1.54741E-6	-47.634627
1.547455E-6	-47.634627
1.5475E-6	-47.449688
1.547545E-6	-46.744843
1.54759E-6	-45.951663
1.547635E-6	-45.509847
1.54768E-6	-45.394028
1.547725E-6	-45.377518
1.54777E-6	-45.383514
1.547815E-6	-45.389519
1.54786E-6	-45.428754
1.547905E-6	-45.608253
1.54795E-6	-46.223296
1.547995E-6	-47.061956
1.54804E-6	-47.552282
1.548085E-6	-47.662426
1.54813E-6	-47.677665
1.548175E-6	-47.652297
1.54822E-6	-47.452103
1.548265E-6	-46.42637
1.54831E-6	-38.110715
1.548355E-6	-26.434006
1.5484E-6	-21.582652
1.548445E-6	-19.718356
1.54849E-6	-19.28118
1.548535E-6	-19.219058
1.54858E-6	-19.211808
1.548625E-6	-19.233596
1.54867E-6	-19.649707
1.548715E-6	-21.730834
1.54876E-6	-26.957249
1.548805E-6	-36.631402
1.54885E-6	-44.125135
1.548895E-6	-46.871882
1.54894E-6	-47.493361
1.548985E-6	-47.609509
1.54903E-6	-47.642191
1.549075E-6	-47.592012
1.54912E-6	-47.196493
1.549165E-6	-46.371407
1.54921E-6	-45.70894
1.549255E-6	-45.442418
1.5493E-6	-45.389519
1.549345E-6	-45.385015
1.54939E-6	-45.395532
1.549435E-6	-45.391022
1.54948E-6	-45.425723
1.549525E-6	-45.787252
1.54957E-6	-46.561977
1.549615E-6	-47.316561
1.54966E-6	-47.617029
1.549705E-6	-47.654827
1.54975E-6	-47.627077
1.549795E-6	-47.577071
1.54984E-6	-47.171514
1.549885E-6	-44.952574
1.54993E-6	-32.180293
1.549975E-6	-23.901922
1.55002E-6	-20.518316
1.550065E-6	-19.465374
1.55011E-6	-19.292235
1.550155E-6	-19.259153
1.5502E-6	-19.255493
1.550245E-6	-19.284862
1.55029E-6	-20.05331
1.550335E-6	-22.967946
1.55038E-6	-29.500071
1.550425E-6	-39.578184
1.55047E-6	-45.476002
1.550515E-6	-47.146678
1.55056E-6	-47.517814
1.550605E-6	-47.579558
1.55065E-6	-47.592012
1.550695E-6	-47.47147
1.55074E-6	-46.840297
1.550785E-6	-45.982549
1.55083E-6	-45.463759
1.550875E-6	-45.329842
1.55092E-6	-45.304725
1.550965E-6	-45.309147
1.55101E-6	-45.291487
1.551055E-6	-45.290018
1.5511E-6	-45.421181
1.551145E-6	-45.936302
1.55119E-6	-46.813107
1.551235E-6	-47.413627
1.55128E-6	-47.56962
1.551325E-6	-47.56962
1.55137E-6	-47.549811
1.551415E-6	-47.432823
1.55146E-6	-46.806857
1.551505E-6	-41.893643
1.55155E-6	-28.8706
1.551595E-6	-22.540668
1.55164E-6	-20.040578
1.551685E-6	-19.385475
1.55173E-6	-19.292235
1.551775E-6	-19.24453
1.55182E-6	-19.222688
1.551865E-6	-19.438577
1.55191E-6	-20.867691
1.551955E-6	-24.981195
1.552E-6	-33.315209
1.552045E-6	-42.227182
1.55209E-6	-46.29117
1.552135E-6	-47.244583
1.55218E-6	-47.452103
1.552225E-6	-47.510464
1.55227E-6	-47.4958
1.552315E-6	-47.235382
1.55236E-6	-46.439741
1.552405E-6	-45.622494
1.55245E-6	-45.243288
1.552495E-6	-45.15985
1.55254E-6	-45.168408
1.552585E-6	-45.158426
1.55263E-6	-45.142786
1.552675E-6	-45.162701
1.55272E-6	-45.394028
1.552765E-6	-46.094181
1.55281E-6	-46.92932
1.552855E-6	-47.384992
1.5529E-6	-47.47147
1.552945E-6	-47.469044
1.55299E-6	-47.437635
1.553035E-6	-47.221617
1.55308E-6	-46.099485
1.553125E-6	-36.665527
1.55317E-6	-25.787252
1.553215E-6	-21.252863
1.55326E-6	-19.542859
1.553305E-6	-19.164974
1.55335E-6	-19.076303
1.553395E-6	-19.04482
1.55344E-6	-19.055289
1.553485E-6	-19.476909
1.55353E-6	-21.534773
1.553575E-6	-26.66956
1.55362E-6	-36.176227
1.553665E-6	-43.699791
1.55371E-6	-46.571827
1.553755E-6	-47.246886
1.5538E-6	-47.382615
1.553845E-6	-47.416022
1.55389E-6	-47.368375
1.553935E-6	-46.933606
1.55398E-6	-46.06074
1.554025E-6	-45.358086
1.55407E-6	-45.082182
1.554115E-6	-45.030704
1.55416E-6	-45.005879
1.554205E-6	-44.994891
1.55425E-6	-45.019653
1.554295E-6	-45.064026
1.55434E-6	-45.412111
1.554385E-6	-46.176227
1.55443E-6	-46.978856
1.554475E-6	-47.318903
1.55452E-6	-47.373117
1.554565E-6	-47.382615
1.55461E-6	-47.321246
1.554655E-6	-47.013652
1.5547E-6	-45.275361
1.554745E-6	-33.568435
1.55479E-6	-24.507514
1.554835E-6	-20.833355
1.55488E-6	-19.542859
1.554925E-6	-19.28118
1.55497E-6	-19.222688
1.555015E-6	-19.20457
1.55506E-6	-19.240882
1.555105E-6	-19.800533
1.55515E-6	-22.225732
1.555195E-6	-28.181564
1.55524E-6	-38.329782
1.555285E-6	-44.647059
1.55533E-6	-46.73869
1.555375E-6	-47.212464
1.55542E-6	-47.293212
1.555465E-6	-47.302536
1.55551E-6	-47.223908
1.555555E-6	-46.712128
1.5556E-6	-45.793842
1.555645E-6	-45.149888
1.55569E-6	-44.933597
1.555735E-6	-44.87983
1.55578E-6	-44.867824
1.555825E-6	-44.862498
1.55587E-6	-44.882503
1.555915E-6	-44.960732
1.55596E-6	-45.359578
1.556005E-6	-46.206945
1.55605E-6	-46.972363
1.556095E-6	-47.263044
1.55614E-6	-47.307206
1.556185E-6	-47.293212
1.55623E-6	-47.2262
1.556275E-6	-46.850799
1.55632E-6	-44.475752
1.556365E-6	-31.753536
1.55641E-6	-23.684548
1.556455E-6	-20.310037
1.5565E-6	-19.219058
1.556545E-6	-19.034376
1.55659E-6	-19.010104
1.556635E-6	-19.006647
1.55668E-6	-19.058784
1.556725E-6	-19.767475
1.55677E-6	-22.497231
1.556815E-6	-29.122186
1.55686E-6	-39.37418
1.556905E-6	-44.964817
1.55695E-6	-46.786087
1.556995E-6	-47.162466
1.55704E-6	-47.244583
1.557085E-6	-47.265357
1.55713E-6	-47.180581
1.557175E-6	-46.607474
1.55722E-6	-45.683147
1.557265E-6	-45.082182
1.55731E-6	-44.907975
1.557355E-6	-44.871822
1.5574E-6	-44.885177
1.557445E-6	-44.89321
1.55749E-6	-44.887853
1.557535E-6	-44.974363
1.55758E-6	-45.410601
1.557625E-6	-46.26904
1.55767E-6	-47.031155
1.557715E-6	-47.281584
1.55776E-6	-47.31422
1.557805E-6	-47.297871
1.55785E-6	-47.233085
1.557895E-6	-46.838199
1.55794E-6	-44.23083
1.557985E-6	-31.409819
1.55803E-6	-23.686577
1.558075E-6	-20.323584
1.55812E-6	-19.251836
1.558165E-6	-19.076303
1.55821E-6	-19.048306
1.558255E-6	-19.062282
1.5583E-6	-19.164974
1.558345E-6	-19.965395
1.55839E-6	-22.915791
1.558435E-6	-29.511699
1.55848E-6	-39.28118
1.558525E-6	-45.208568
1.55857E-6	-46.893067
1.558615E-6	-47.263044
1.55866E-6	-47.340036
1.558705E-6	-47.368375
1.55875E-6	-47.274622
1.558795E-6	-46.697892
1.55884E-6	-45.795491
1.558885E-6	-45.208568
1.55893E-6	-45.055671
1.558975E-6	-45.03901
1.55902E-6	-45.0515
1.559065E-6	-45.03901
1.55911E-6	-45.044557
1.559155E-6	-45.144205
1.5592E-6	-45.587763
1.559245E-6	-46.449318
1.55929E-6	-47.198771
1.559335E-6	-47.444863
1.55938E-6	-47.476325
1.559425E-6	-47.47147
1.55947E-6	-47.420815
1.559515E-6	-47.004927
1.55956E-6	-44.27942
1.559605E-6	-31.281936
1.55965E-6	-23.446694
1.559695E-6	-20.230085
1.55974E-6	-19.24453
1.559785E-6	-19.100949
1.55983E-6	-19.097419
1.559875E-6	-19.143527
1.55992E-6	-19.219058
1.559965E-6	-20.058589
1.56001E-6	-22.947351
1.560055E-6	-29.484616
1.5601E-6	-39.321855
1.560145E-6	-45.364056
1.56019E-6	-47.124222
1.560235E-6	-47.537477
1.56028E-6	-47.637147
1.560325E-6	-47.672579
1.56037E-6	-47.587026
1.560415E-6	-47.048729
1.56046E-6	-46.183435
1.560505E-6	-45.600361
1.56055E-6	-45.44546
1.560595E-6	-45.428754
1.56064E-6	-45.431787
1.560685E-6	-45.448505
1.56073E-6	-45.466817
1.560775E-6	-45.561115
1.56082E-6	-45.975667
1.560865E-6	-46.804776
1.56091E-6	-47.532553
1.560955E-6	-47.79369
1.561E-6	-47.846268
1.561045E-6	-47.870138
1.56109E-6	-47.888795
1.561135E-6	-47.899492
1.56118E-6	-47.8199
1.561225E-6	-47.321246
1.56127E-6	-46.480105
1.561315E-6	-45.902359
1.56136E-6	-45.733261
1.561405E-6	-45.712175
1.56145E-6	-45.70894
1.561495E-6	-45.721894
1.56154E-6	-45.747919
1.561585E-6	-45.830268
1.56163E-6	-46.208759
1.561675E-6	-47.011469
1.56172E-6	-47.744323
1.561765E-6	-48.013429
1.56181E-6	-48.088285
1.561855E-6	-48.110715
1.5619E-6	-48.130437
1.561945E-6	-48.147412
1.56199E-6	-48.082696
1.562035E-6	-47.659892
1.56208E-6	-46.850799
1.562125E-6	-46.256183
1.56217E-6	-46.043242
1.562215E-6	-46.011923
1.56226E-6	-46.025815
1.562305E-6	-46.029295
1.56235E-6	-46.058987
1.562395E-6	-46.115435
1.56244E-6	-46.445485
1.562485E-6	-47.176045
1.56253E-6	-47.92635
1.562575E-6	-48.27689
1.56262E-6	-48.353498
1.562665E-6	-48.392314
1.56271E-6	-48.395315
1.562755E-6	-48.401322
1.5628E-6	-48.365404
1.562845E-6	-48.01893
1.56289E-6	-47.253804
1.562935E-6	-46.613443
1.56298E-6	-46.377061
1.563025E-6	-46.341378
1.56307E-6	-46.356366
1.563115E-6	-46.377061
1.56316E-6	-46.403542
1.563205E-6	-46.458916
1.56325E-6	-46.744843
1.563295E-6	-47.437635
1.56334E-6	-48.204482
1.563385E-6	-48.548036
1.56343E-6	-48.645493
1.563475E-6	-48.680607
1.56352E-6	-48.690233
1.563565E-6	-48.709549
1.56361E-6	-48.693447
1.563655E-6	-48.419392
1.5637E-6	-47.708303
1.563745E-6	-47.053134
1.56379E-6	-46.773673
1.563835E-6	-46.720284
1.56388E-6	-46.755118
1.563925E-6	-46.771607
1.56397E-6	-46.804776
1.564015E-6	-46.848697
1.56406E-6	-47.081873
1.564105E-6	-47.710866
1.56415E-6	-48.458805
1.564195E-6	-48.877302
1.56424E-6	-48.982529
1.564285E-6	-49.003194
1.56433E-6	-49.006647
1.564375E-6	-49.0309
1.56442E-6	-49.0309
1.564465E-6	-48.817353
1.56451E-6	-48.178708
1.564555E-6	-47.512913
1.5646E-6	-47.21475
1.564645E-6	-47.155693
1.56469E-6	-47.173779
1.564735E-6	-47.207895
1.56478E-6	-47.242281
1.564825E-6	-47.272304
1.56487E-6	-47.444863
1.564915E-6	-48.002448
1.56496E-6	-48.758219
1.565005E-6	-49.215432
1.56505E-6	-49.34047
1.565095E-6	-49.351678
1.56514E-6	-49.385475
1.565185E-6	-49.3968
1.56523E-6	-49.419538
1.565275E-6	-49.273825
1.56532E-6	-48.735439
1.565365E-6	-48.043771
1.56541E-6	-47.708303
1.565455E-6	-47.639669
1.5655E-6	-47.664962
1.565545E-6	-47.692957
1.56559E-6	-47.726276
1.565635E-6	-47.731424
1.56568E-6	-47.878124
1.565725E-6	-48.368386
1.56577E-6	-49.076303
1.565815E-6	-49.558524
1.56586E-6	-49.698052
1.565905E-6	-49.730584
1.56595E-6	-49.738755
1.565995E-6	-49.779843
1.56604E-6	-49.800533
1.566085E-6	-49.718356
1.56613E-6	-49.262816
1.566175E-6	-48.598063
1.56622E-6	-48.218867
1.566265E-6	-48.144578
1.56631E-6	-48.16161
1.566355E-6	-48.181564
1.5664E-6	-48.204482
1.566445E-6	-48.224635
1.56649E-6	-48.315025
1.566535E-6	-48.709549
1.56658E-6	-49.377942
1.566625E-6	-49.918258
1.56667E-6	-50.070932
1.566715E-6	-50.114856
1.56676E-6	-50.134522
1.566805E-6	-50.174122
1.56685E-6	-50.189066
1.566895E-6	-50.139452
1.56694E-6	-49.788107
1.566985E-6	-49.179331
1.56703E-6	-48.751699
1.567075E-6	-48.664611
1.56712E-6	-48.667805
1.567165E-6	-48.693447
1.56721E-6	-48.712777
1.567255E-6	-48.745187
1.5673E-6	-48.830604
1.567345E-6	-49.143527
1.56739E-6	-49.755143
1.567435E-6	-50.282141
1.56748E-6	-50.491485
1.567525E-6	-50.551227
1.56757E-6	-50.595333
1.567615E-6	-50.605806
1.56766E-6	-50.650473
1.567705E-6	-50.661585
1.56775E-6	-50.406724
1.567795E-6	-49.901244
1.56784E-6	-49.519468
1.567885E-6	-49.411945
1.56793E-6	-49.442395
1.567975E-6	-49.496202
1.56802E-6	-49.54677
1.568065E-6	-49.613798
1.56811E-6	-49.706162
1.568155E-6	-49.956786
1.5682E-6	-50.450343
1.568245E-6	-50.970186
1.56829E-6	-51.229744
1.568335E-6	-51.307096
1.56838E-6	-51.398417
1.568425E-6	-51.460586
1.56847E-6	-51.51503
1.568515E-6	-51.563313
1.56856E-6	-51.501508
1.568605E-6	-51.212485
1.56865E-6	-50.965844
1.568695E-6	-50.888957
1.56874E-6	-50.94798
1.568785E-6	-51.04467
1.56883E-6	-51.143561
1.568875E-6	-51.251125
1.56892E-6	-51.354889
1.568965E-6	-51.556471
1.56901E-6	-51.86953
1.569055E-6	-52.222833
1.5691E-6	-52.445825
1.569145E-6	-52.530546
1.56919E-6	-52.626483
1.569235E-6	-52.688949
1.56928E-6	-52.76052
1.569325E-6	-52.805858
1.56937E-6	-52.851675
1.569415E-6	-52.76955
1.56946E-6	-52.679281
1.569505E-6	-52.643213
1.56955E-6	-52.697023
1.569595E-6	-52.76052
1.56964E-6	-52.819968
1.569685E-6	-52.931969
1.56973E-6	-52.992098
1.569775E-6	-53.097153
1.56982E-6	-53.239469
1.569865E-6	-53.397988
1.56991E-6	-53.5164
1.569955E-6	-53.585259
1.57E-6	-53.651199
