Wavelength (nm)	Power (dBm)
1.525E-6	-51.17988
1.525045E-6	-51.07349
1.52509E-6	-51.070154
1.525135E-6	-51.231474
1.52518E-6	-51.365582
1.525225E-6	-51.35311
1.52527E-6	-51.283687
1.525315E-6	-51.201589
1.52536E-6	-51.108104
1.525405E-6	-51.018235
1.52545E-6	-50.862921
1.525495E-6	-50.517827
1.52554E-6	-50.031382
1.525585E-6	-49.661743
1.52563E-6	-49.469216
1.525675E-6	-49.325572
1.52572E-6	-49.19013
1.525765E-6	-49.055289
1.52581E-6	-48.944898
1.525855E-6	-48.985966
1.5259E-6	-49.30702
1.525945E-6	-49.718356
1.52599E-6	-49.905491
1.526035E-6	-49.888526
1.52608E-6	-49.833845
1.526125E-6	-49.75925
1.52617E-6	-49.689957
1.526215E-6	-49.558524
1.52626E-6	-49.150664
1.526305E-6	-48.437538
1.52635E-6	-47.872798
1.526395E-6	-47.599502
1.52644E-6	-47.452103
1.526485E-6	-47.340036
1.52653E-6	-47.23768
1.526575E-6	-47.164726
1.52662E-6	-47.185121
1.526665E-6	-47.557229
1.52671E-6	-48.227522
1.526755E-6	-48.703101
1.5268E-6	-48.797552
1.526845E-6	-48.761484
1.52689E-6	-48.706324
1.526935E-6	-48.642315
1.52698E-6	-48.551146
1.527025E-6	-48.136088
1.52707E-6	-47.233085
1.527115E-6	-46.397854
1.52716E-6	-45.905741
1.527205E-6	-45.793842
1.52725E-6	-45.743028
1.527295E-6	-45.662302
1.52734E-6	-45.581478
1.527385E-6	-45.622494
1.52743E-6	-46.071273
1.527475E-6	-47.031155
1.52752E-6	-47.809397
1.527565E-6	-48.029953
1.52761E-6	-47.999707
1.527655E-6	-47.999707
1.5277E-6	-47.966951
1.527745E-6	-47.9129
1.52779E-6	-47.535014
1.527835E-6	-46.411138
1.52788E-6	-45.285616
1.527925E-6	-44.796475
1.52797E-6	-44.643262
1.528015E-6	-44.589202
1.52806E-6	-44.523483
1.528105E-6	-44.451476
1.52815E-6	-44.503838
1.528195E-6	-44.92819
1.52824E-6	-45.936302
1.528285E-6	-47.095202
1.52833E-6	-47.597004
1.528375E-6	-47.695511
1.52842E-6	-47.672579
1.528465E-6	-47.672579
1.52851E-6	-47.627077
1.528555E-6	-47.368375
1.5286E-6	-46.294869
1.528645E-6	-44.970269
1.52869E-6	-44.189611
1.528735E-6	-43.992449
1.52878E-6	-43.915809
1.528825E-6	-43.893398
1.52887E-6	-43.864753
1.528915E-6	-43.896593
1.52896E-6	-44.182778
1.529005E-6	-45.117314
1.52905E-6	-46.538427
1.529095E-6	-47.380238
1.52914E-6	-47.549811
1.529185E-6	-47.577071
1.52923E-6	-47.579558
1.529275E-6	-47.579558
1.52932E-6	-47.464197
1.529365E-6	-46.615435
1.52941E-6	-45.124374
1.529455E-6	-44.097156
1.5295E-6	-43.758211
1.529545E-6	-43.656235
1.52959E-6	-43.628106
1.529635E-6	-43.639135
1.52968E-6	-43.632113
1.529725E-6	-43.773716
1.52977E-6	-44.538276
1.529815E-6	-45.99462
1.52986E-6	-47.207895
1.529905E-6	-47.564659
1.52995E-6	-47.642191
1.529995E-6	-47.614521
1.53004E-6	-47.614521
1.530085E-6	-47.592012
1.53013E-6	-47.037737
1.530175E-6	-45.589336
1.53022E-6	-44.299243
1.530265E-6	-43.767507
1.53031E-6	-43.612113
1.530355E-6	-43.624102
1.5304E-6	-43.616106
1.530445E-6	-43.638131
1.53049E-6	-43.656235
1.530535E-6	-44.163479
1.53058E-6	-45.421181
1.530625E-6	-46.873996
1.53067E-6	-47.537477
1.530715E-6	-47.664962
1.53076E-6	-47.644716
1.530805E-6	-47.68021
1.53085E-6	-47.675121
1.530895E-6	-47.377863
1.53094E-6	-46.178028
1.530985E-6	-44.668637
1.53103E-6	-43.867926
1.531075E-6	-43.641143
1.53112E-6	-43.581295
1.531165E-6	-43.577334
1.53121E-6	-43.577334
1.531255E-6	-43.582285
1.5313E-6	-43.89127
1.531345E-6	-44.917397
1.53139E-6	-46.482037
1.531435E-6	-47.459355
1.53148E-6	-47.685304
1.531525E-6	-47.718564
1.53157E-6	-47.695511
1.531615E-6	-47.723704
1.53166E-6	-47.592012
1.531705E-6	-46.779876
1.53175E-6	-45.253467
1.531795E-6	-44.168012
1.53184E-6	-43.759243
1.531885E-6	-43.713046
1.53193E-6	-43.73865
1.531975E-6	-43.724293
1.53202E-6	-43.734543
1.532065E-6	-43.873221
1.53211E-6	-44.548166
1.532155E-6	-45.968795
1.5322E-6	-47.281584
1.532245E-6	-47.708303
1.53229E-6	-47.791078
1.532335E-6	-47.791078
1.53238E-6	-47.801536
1.532425E-6	-47.767637
1.53247E-6	-47.32359
1.532515E-6	-45.992894
1.53256E-6	-44.602968
1.532605E-6	-44.017568
1.53265E-6	-43.859469
1.532695E-6	-43.802807
1.53274E-6	-43.835245
1.532785E-6	-43.842603
1.53283E-6	-43.957739
1.532875E-6	-44.364003
1.53292E-6	-45.540846
1.532965E-6	-47.039933
1.53301E-6	-47.746907
1.533055E-6	-47.896815
1.5331E-6	-47.915586
1.533145E-6	-47.947956
1.53319E-6	-47.920965
1.533235E-6	-47.788467
1.53328E-6	-46.873996
1.533325E-6	-45.460704
1.53337E-6	-44.541982
1.533415E-6	-44.249277
1.53346E-6	-44.245812
1.533505E-6	-44.268962
1.53355E-6	-44.301581
1.533595E-6	-44.336804
1.53364E-6	-44.594203
1.533685E-6	-45.334289
1.53373E-6	-46.679657
1.533775E-6	-47.75208
1.53382E-6	-48.052082
1.533865E-6	-48.096683
1.53391E-6	-48.136088
1.533955E-6	-48.127614
1.534E-6	-48.136088
1.534045E-6	-47.657359
1.53409E-6	-46.445485
1.534135E-6	-45.373026
1.53418E-6	-44.899915
1.534225E-6	-44.786004
1.53427E-6	-44.806972
1.534315E-6	-44.830682
1.53436E-6	-44.88384
1.534405E-6	-44.952574
1.53445E-6	-45.421181
1.534495E-6	-46.460838
1.53454E-6	-47.677665
1.534585E-6	-48.198741
1.53463E-6	-48.323873
1.534675E-6	-48.347557
1.53472E-6	-48.353498
1.534765E-6	-48.347557
1.53481E-6	-48.204482
1.534855E-6	-47.380238
1.5349E-6	-46.181632
1.534945E-6	-45.525319
1.53499E-6	-45.313573
1.535035E-6	-45.32836
1.53508E-6	-45.36107
1.535125E-6	-45.404567
1.53517E-6	-45.434821
1.535215E-6	-45.605094
1.53526E-6	-46.343249
1.535305E-6	-47.535014
1.53535E-6	-48.323873
1.535395E-6	-48.529423
1.53544E-6	-48.520147
1.535485E-6	-48.471004
1.53553E-6	-48.195874
1.535575E-6	-46.697892
1.53562E-6	-36.961562
1.535665E-6	-25.920995
1.53571E-6	-20.716041
1.535755E-6	-18.690233
1.5358E-6	-18.300318
1.535845E-6	-18.350526
1.53589E-6	-18.41336
1.535935E-6	-18.517059
1.53598E-6	-19.100949
1.536025E-6	-21.345407
1.53607E-6	-26.972363
1.536115E-6	-37.113037
1.53616E-6	-44.652126
1.536205E-6	-47.715996
1.53625E-6	-48.449678
1.536295E-6	-48.607508
1.53634E-6	-48.674202
1.536385E-6	-48.579235
1.53643E-6	-47.956087
1.536475E-6	-46.946486
1.53652E-6	-46.27088
1.536565E-6	-46.092415
1.53661E-6	-46.083593
1.536655E-6	-46.092415
1.5367E-6	-46.095948
1.536745E-6	-46.110112
1.53679E-6	-46.265363
1.536835E-6	-46.85922
1.53688E-6	-47.838341
1.536925E-6	-48.551146
1.53697E-6	-48.732194
1.537015E-6	-48.732194
1.53706E-6	-48.696662
1.537105E-6	-48.416375
1.53715E-6	-47.092978
1.537195E-6	-38.374356
1.53724E-6	-25.625666
1.537285E-6	-20.512937
1.53733E-6	-18.480176
1.537375E-6	-18.046539
1.53742E-6	-18.007935
1.537465E-6	-18.038238
1.53751E-6	-18.082696
1.537555E-6	-18.572978
1.5376E-6	-20.810789
1.537645E-6	-26.305986
1.53769E-6	-36.593576
1.537735E-6	-44.277094
1.53778E-6	-47.609509
1.537825E-6	-48.501653
1.53787E-6	-48.687022
1.537915E-6	-48.738686
1.53796E-6	-48.677403
1.538005E-6	-48.099486
1.53805E-6	-47.142177
1.538095E-6	-46.472388
1.53814E-6	-46.27088
1.538185E-6	-46.239708
1.53823E-6	-46.232406
1.538275E-6	-46.225116
1.53832E-6	-46.232406
1.538365E-6	-46.341378
1.53841E-6	-46.8867
1.538455E-6	-47.809397
1.5385E-6	-48.517059
1.538545E-6	-48.706324
1.53859E-6	-48.716007
1.538635E-6	-48.690233
1.53868E-6	-48.44664
1.538725E-6	-47.321246
1.53877E-6	-39.808837
1.538815E-6	-26.432095
1.53886E-6	-20.771708
1.538905E-6	-18.53252
1.53895E-6	-18.002448
1.538995E-6	-17.90485
1.53904E-6	-17.856861
1.539085E-6	-17.843624
1.53913E-6	-18.215987
1.539175E-6	-20.24936
1.53922E-6	-25.37153
1.539265E-6	-35.319482
1.53931E-6	-43.579314
1.539355E-6	-47.396901
1.5394E-6	-48.380334
1.539445E-6	-48.591778
1.53949E-6	-48.648673
1.539535E-6	-48.579235
1.53958E-6	-48.041003
1.539625E-6	-47.068585
1.53967E-6	-46.35449
1.539715E-6	-46.108339
1.53976E-6	-46.050233
1.539805E-6	-46.039751
1.53985E-6	-46.029295
1.539895E-6	-46.036263
1.53994E-6	-46.136794
1.539985E-6	-46.633402
1.54003E-6	-47.584535
1.540075E-6	-48.33866
1.54012E-6	-48.563608
1.540165E-6	-48.588639
1.54021E-6	-48.569852
1.540255E-6	-48.38632
1.5403E-6	-47.498241
1.540345E-6	-41.531065
1.54039E-6	-27.562181
1.540435E-6	-21.400815
1.54048E-6	-18.774565
1.540525E-6	-18.052082
1.54057E-6	-17.907532
1.540615E-6	-17.835702
1.54066E-6	-17.825161
1.540705E-6	-18.099486
1.54075E-6	-19.804683
1.540795E-6	-24.388986
1.54084E-6	-33.533023
1.540885E-6	-42.675258
1.54093E-6	-46.8867
1.540975E-6	-48.150248
1.54102E-6	-48.401322
1.541065E-6	-48.4649
1.54111E-6	-48.422411
1.541155E-6	-47.956087
1.5412E-6	-46.950788
1.541245E-6	-46.124322
1.54129E-6	-45.788899
1.541335E-6	-45.689581
1.54138E-6	-45.686362
1.541425E-6	-45.68154
1.54147E-6	-45.676722
1.541515E-6	-45.734887
1.54156E-6	-46.165437
1.541605E-6	-47.088532
1.54165E-6	-48.005191
1.541695E-6	-48.365404
1.54174E-6	-48.416375
1.541785E-6	-48.374356
1.54183E-6	-48.236193
1.541875E-6	-47.582046
1.54192E-6	-43.729415
1.541965E-6	-29.779843
1.54201E-6	-22.127521
1.542055E-6	-19.020489
1.5421E-6	-18.079904
1.542145E-6	-17.910215
1.54219E-6	-17.87546
1.542235E-6	-17.81202
1.54228E-6	-17.94525
1.542325E-6	-19.215432
1.54237E-6	-22.906452
1.542415E-6	-30.869813
1.54246E-6	-40.665127
1.542505E-6	-46.169031
1.54255E-6	-47.817271
1.542595E-6	-48.187282
1.54264E-6	-48.256494
1.542685E-6	-48.268137
1.54273E-6	-47.956087
1.542775E-6	-46.968039
1.54282E-6	-45.989443
1.542865E-6	-45.52842
1.54291E-6	-45.424209
1.542955E-6	-45.409092
1.543E-6	-45.410601
1.543045E-6	-45.392525
1.54309E-6	-45.424209
1.543135E-6	-45.725139
1.54318E-6	-46.575773
1.543225E-6	-47.627077
1.54327E-6	-48.167302
1.543315E-6	-48.247782
1.54336E-6	-48.233301
1.543405E-6	-48.153086
1.54345E-6	-47.728849
1.543495E-6	-45.605094
1.54354E-6	-33.181259
1.543585E-6	-23.697756
1.54363E-6	-19.689957
1.543675E-6	-18.300318
1.54372E-6	-18.01893
1.543765E-6	-17.956087
1.54381E-6	-17.910215
1.543855E-6	-17.964232
1.5439E-6	-18.728952
1.543945E-6	-21.485582
1.54399E-6	-28.027194
1.544035E-6	-38.362425
1.54408E-6	-44.93495
1.544125E-6	-47.432823
1.54417E-6	-48.016179
1.544215E-6	-48.155925
1.54426E-6	-48.184422
1.544305E-6	-48.013429
1.54435E-6	-47.178312
1.544395E-6	-46.046736
1.54444E-6	-45.43027
1.544485E-6	-45.252012
1.54453E-6	-45.233133
1.544575E-6	-45.233133
1.54462E-6	-45.234582
1.544665E-6	-45.243288
1.54471E-6	-45.418156
1.544755E-6	-46.110112
1.5448E-6	-47.221617
1.544845E-6	-47.983298
1.54489E-6	-48.164455
1.544935E-6	-48.173001
1.54498E-6	-48.133261
1.545025E-6	-47.918275
1.54507E-6	-46.763355
1.545115E-6	-38.492436
1.54516E-6	-25.939711
1.545205E-6	-20.769115
1.54525E-6	-18.728952
1.545295E-6	-18.250684
1.54534E-6	-18.178708
1.545385E-6	-18.150248
1.54543E-6	-18.164455
1.545475E-6	-18.541823
1.54552E-6	-20.480799
1.545565E-6	-25.383514
1.54561E-6	-34.930893
1.545655E-6	-43.322669
1.5457E-6	-46.944337
1.545745E-6	-47.880789
1.54579E-6	-48.096683
1.545835E-6	-48.153086
1.54588E-6	-48.107905
1.545925E-6	-47.557229
1.54597E-6	-46.430186
1.546015E-6	-45.578339
1.54606E-6	-45.262212
1.546105E-6	-45.210009
1.54615E-6	-45.181276
1.546195E-6	-45.176982
1.54624E-6	-45.172693
1.546285E-6	-45.272436
1.54633E-6	-45.723516
1.546375E-6	-46.736641
1.54642E-6	-47.71343
1.546465E-6	-48.10229
1.54651E-6	-48.164455
1.546555E-6	-48.155925
1.5466E-6	-48.068754
1.546645E-6	-47.517814
1.54669E-6	-44.145393
1.546735E-6	-30.560605
1.54678E-6	-22.703493
1.546825E-6	-19.480761
1.54687E-6	-18.44664
1.546915E-6	-18.271053
1.54696E-6	-18.23041
1.547005E-6	-18.23041
1.54705E-6	-18.365404
1.547095E-6	-19.411945
1.54714E-6	-22.762161
1.547185E-6	-29.913998
1.54723E-6	-39.888526
1.547275E-6	-45.856953
1.54732E-6	-47.632109
1.547365E-6	-48.052082
1.54741E-6	-48.136088
1.547455E-6	-48.138916
1.5475E-6	-47.886124
1.547545E-6	-46.959405
1.54759E-6	-45.885487
1.547635E-6	-45.344684
1.54768E-6	-45.204247
1.547725E-6	-45.188441
1.54777E-6	-45.197055
1.547815E-6	-45.210009
1.54786E-6	-45.243288
1.547905E-6	-45.457651
1.54795E-6	-46.241536
1.547995E-6	-47.318903
1.54804E-6	-48.002448
1.548085E-6	-48.175853
1.54813E-6	-48.190144
1.548175E-6	-48.144578
1.54822E-6	-47.886124
1.548265E-6	-46.577748
1.54831E-6	-36.734593
1.548355E-6	-25.568935
1.5484E-6	-20.629337
1.548445E-6	-18.716007
1.54849E-6	-18.279812
1.548535E-6	-18.207355
1.54858E-6	-18.193008
1.548625E-6	-18.204482
1.54867E-6	-18.598063
1.548715E-6	-20.673233
1.54876E-6	-25.790546
1.548805E-6	-35.385015
1.54885E-6	-43.582285
1.548895E-6	-47.035542
1.54894E-6	-47.920965
1.548985E-6	-48.099486
1.54903E-6	-48.127614
1.549075E-6	-48.074325
1.54912E-6	-47.539941
1.549165E-6	-46.441655
1.54921E-6	-45.587763
1.549255E-6	-45.26513
1.5493E-6	-45.199931
1.549345E-6	-45.207127
1.54939E-6	-45.207127
1.549435E-6	-45.198493
1.54948E-6	-45.257837
1.549525E-6	-45.684754
1.54957E-6	-46.657474
1.549615E-6	-47.670039
1.54966E-6	-48.08549
1.549705E-6	-48.150248
1.54975E-6	-48.133261
1.549795E-6	-48.032713
1.54984E-6	-47.525177
1.549885E-6	-44.756039
1.54993E-6	-31.578278
1.549975E-6	-23.058337
1.55002E-6	-19.554602
1.550065E-6	-18.449678
1.55011E-6	-18.279812
1.550155E-6	-18.241984
1.5502E-6	-18.233301
1.550245E-6	-18.268137
1.55029E-6	-19.013563
1.550335E-6	-21.800614
1.55038E-6	-28.598063
1.550425E-6	-39.262816
1.55047E-6	-45.218666
1.550515E-6	-47.440043
1.55056E-6	-47.94525
1.550605E-6	-48.057633
1.55065E-6	-48.071539
1.550695E-6	-47.907532
1.55074E-6	-47.068585
1.550785E-6	-45.967079
1.55083E-6	-45.326879
1.550875E-6	-45.13853
1.55092E-6	-45.124374
1.550965E-6	-45.120137
1.55101E-6	-45.108856
1.551055E-6	-45.104634
1.5511E-6	-45.247648
1.551145E-6	-45.880438
1.55119E-6	-46.996219
1.551235E-6	-47.830428
1.55128E-6	-48.04931
1.551325E-6	-48.068754
1.55137E-6	-48.024438
1.551415E-6	-47.87546
1.55146E-6	-47.046529
1.551505E-6	-41.478251
1.55155E-6	-28.08549
1.551595E-6	-21.623484
1.55164E-6	-19.076303
1.551685E-6	-18.389316
1.55173E-6	-18.27689
1.551775E-6	-18.23041
1.55182E-6	-18.22175
1.551865E-6	-18.401322
1.55191E-6	-19.817157
1.551955E-6	-23.743789
1.552E-6	-32.03981
1.552045E-6	-41.349553
1.55209E-6	-46.259853
1.552135E-6	-47.62205
1.55218E-6	-47.931741
1.552225E-6	-47.988761
1.55227E-6	-47.988761
1.552315E-6	-47.632109
1.55236E-6	-46.595559
1.552405E-6	-45.570501
1.55245E-6	-45.100415
1.552495E-6	-44.993519
1.55254E-6	-44.974363
1.552585E-6	-44.960732
1.55263E-6	-44.967542
1.552675E-6	-44.985299
1.55272E-6	-45.263671
1.552765E-6	-46.11366
1.55281E-6	-47.223908
1.552855E-6	-47.843624
1.5529E-6	-47.961515
1.552945E-6	-47.961515
1.55299E-6	-47.923656
1.553035E-6	-47.652297
1.55308E-6	-46.226937
1.553125E-6	-36.106567
1.55317E-6	-24.914703
1.553215E-6	-20.27612
1.55326E-6	-18.544928
1.553305E-6	-18.155925
1.55335E-6	-18.096683
1.553395E-6	-18.04931
1.55344E-6	-18.04931
1.553485E-6	-18.45576
1.55353E-6	-20.512937
1.553575E-6	-25.460704
1.55362E-6	-34.917397
1.553665E-6	-43.165927
1.55371E-6	-46.726411
1.553755E-6	-47.654827
1.5538E-6	-47.864822
1.553845E-6	-47.910215
1.55389E-6	-47.848914
1.553935E-6	-47.300203
1.55398E-6	-46.154674
1.554025E-6	-45.253467
1.55407E-6	-44.92279
1.554115E-6	-44.85054
1.55416E-6	-44.832003
1.554205E-6	-44.817493
1.55425E-6	-44.818811
1.554295E-6	-44.870489
1.55434E-6	-45.26513
1.554385E-6	-46.22876
1.55443E-6	-47.309543
1.554475E-6	-47.801536
1.55452E-6	-47.880789
1.554565E-6	-47.888795
1.55461E-6	-47.814645
1.554655E-6	-47.423214
1.5547E-6	-45.243288
1.554745E-6	-33.13185
1.55479E-6	-23.588235
1.554835E-6	-19.800533
1.55488E-6	-18.467951
1.554925E-6	-18.213108
1.55497E-6	-18.141746
1.555015E-6	-18.136088
1.55506E-6	-18.136088
1.555105E-6	-18.677403
1.55515E-6	-21.075158
1.555195E-6	-26.959405
1.55524E-6	-37.2262
1.555285E-6	-44.315636
1.55533E-6	-46.970201
1.555375E-6	-47.659892
1.55542E-6	-47.791078
1.555465E-6	-47.809397
1.55551E-6	-47.710866
1.555555E-6	-47.024583
1.5556E-6	-45.840256
1.555645E-6	-45.027938
1.55569E-6	-44.754741
1.555735E-6	-44.690323
1.55578E-6	-44.695442
1.555825E-6	-44.700566
1.55587E-6	-44.701848
1.555915E-6	-44.788619
1.55596E-6	-45.259295
1.556005E-6	-46.294869
1.55605E-6	-47.351822
1.556095E-6	-47.759852
1.55614E-6	-47.822529
1.556185E-6	-47.804155
1.55623E-6	-47.705742
1.556275E-6	-47.221617
1.55632E-6	-44.398542
1.556365E-6	-31.22053
1.55641E-6	-22.927706
1.556455E-6	-19.450041
1.5565E-6	-18.300318
1.556545E-6	-18.099486
1.55659E-6	-18.06319
1.556635E-6	-18.06319
1.55668E-6	-18.107905
1.556725E-6	-18.797552
1.55677E-6	-21.508264
1.556815E-6	-27.999707
1.55686E-6	-38.282735
1.556905E-6	-44.672456
1.55695E-6	-47.075224
1.556995E-6	-47.624563
1.55704E-6	-47.731424
1.557085E-6	-47.765041
1.55713E-6	-47.647241
1.557175E-6	-46.882461
1.55722E-6	-45.696024
1.557265E-6	-44.9485
1.55731E-6	-44.722412
1.557355E-6	-44.677554
1.5574E-6	-44.681381
1.557445E-6	-44.686488
1.55749E-6	-44.689045
1.557535E-6	-44.789927
1.55758E-6	-45.31505
1.557625E-6	-46.392173
1.55767E-6	-47.380238
1.557715E-6	-47.759852
1.55776E-6	-47.804155
1.557805E-6	-47.77804
1.55785E-6	-47.690404
1.557895E-6	-47.153437
1.55794E-6	-44.072682
1.557985E-6	-30.589858
1.55803E-6	-22.588484
1.558075E-6	-19.233596
1.55812E-6	-18.10229
1.558165E-6	-17.942545
1.55821E-6	-17.9129
1.558255E-6	-17.929045
1.5583E-6	-18.007935
1.558345E-6	-18.810742
1.55839E-6	-21.724369
1.558435E-6	-28.344589
1.55848E-6	-38.680607
1.558525E-6	-44.846561
1.55857E-6	-47.146678
1.558615E-6	-47.68021
1.55866E-6	-47.801536
1.558705E-6	-47.827793
1.55875E-6	-47.71343
1.558795E-6	-46.950788
1.55884E-6	-45.797141
1.558885E-6	-45.061239
1.55893E-6	-44.859838
1.558975E-6	-44.835969
1.55902E-6	-44.833324
1.559065E-6	-44.834646
1.55911E-6	-44.839938
1.559155E-6	-44.93901
1.5592E-6	-45.463759
1.559245E-6	-46.53647
1.55929E-6	-47.530093
1.559335E-6	-47.864822
1.55938E-6	-47.918275
1.559425E-6	-47.90217
1.55947E-6	-47.8199
1.559515E-6	-47.276942
1.55956E-6	-43.970723
1.559605E-6	-30.515381
1.55965E-6	-22.532102
1.559695E-6	-19.273825
1.55974E-6	-18.233301
1.559785E-6	-18.071539
1.55983E-6	-18.091083
1.559875E-6	-18.121974
1.55992E-6	-18.210231
1.559965E-6	-19.003194
1.56001E-6	-21.847544
1.560055E-6	-28.576105
1.5601E-6	-38.982529
1.560145E-6	-45.122961
1.56019E-6	-47.340036
1.560235E-6	-47.896815
1.56028E-6	-48.010681
1.560325E-6	-48.06041
1.56037E-6	-47.953375
1.560415E-6	-47.246886
1.56046E-6	-46.149302
1.560505E-6	-45.431787
1.56055E-6	-45.217222
1.560595E-6	-45.195619
1.56064E-6	-45.197055
1.560685E-6	-45.214335
1.56073E-6	-45.22734
1.560775E-6	-45.326879
1.56082E-6	-45.831931
1.560865E-6	-46.829819
1.56091E-6	-47.79369
1.560955E-6	-48.144578
1.561E-6	-48.204482
1.561045E-6	-48.236193
1.56109E-6	-48.250684
1.561135E-6	-48.247782
1.56118E-6	-48.144578
1.561225E-6	-47.486051
1.56127E-6	-46.424463
1.561315E-6	-45.704092
1.56136E-6	-45.49443
1.561405E-6	-45.462231
1.56145E-6	-45.463759
1.561495E-6	-45.471407
1.56154E-6	-45.489815
1.561585E-6	-45.581478
1.56163E-6	-46.043242
1.561675E-6	-47.011469
1.56172E-6	-47.929045
1.561765E-6	-48.303256
1.56181E-6	-48.38632
1.561855E-6	-48.407337
1.5619E-6	-48.425432
1.561945E-6	-48.434508
1.56199E-6	-48.353498
1.562035E-6	-47.801536
1.56208E-6	-46.775739
1.562125E-6	-46.032777
1.56217E-6	-45.779028
1.562215E-6	-45.73977
1.56226E-6	-45.734887
1.562305E-6	-45.757719
1.56235E-6	-45.780672
1.562395E-6	-45.846927
1.56244E-6	-46.221476
1.562485E-6	-47.090754
1.56253E-6	-48.041003
1.562575E-6	-48.483238
1.56262E-6	-48.585502
1.562665E-6	-48.604357
1.56271E-6	-48.610661
1.562755E-6	-48.616973
1.5628E-6	-48.560489
1.562845E-6	-48.110715
1.56289E-6	-47.153437
1.562935E-6	-46.373291
1.56298E-6	-46.085356
1.563025E-6	-46.038007
1.56307E-6	-46.048484
1.563115E-6	-46.071273
1.56316E-6	-46.092415
1.563205E-6	-46.154674
1.56325E-6	-46.478175
1.563295E-6	-47.276942
1.56334E-6	-48.227522
1.563385E-6	-48.687022
1.56343E-6	-48.790972
1.563475E-6	-48.840568
1.56352E-6	-48.830604
1.563565E-6	-48.837244
1.56361E-6	-48.810742
1.563655E-6	-48.449678
1.5637E-6	-47.604503
1.563745E-6	-46.790233
1.56379E-6	-46.458916
1.563835E-6	-46.407338
1.56388E-6	-46.403542
1.563925E-6	-46.437829
1.56397E-6	-46.462761
1.564015E-6	-46.505282
1.56406E-6	-46.753061
1.564105E-6	-47.478754
1.56415E-6	-48.404328
1.564195E-6	-48.900841
1.56424E-6	-49.04482
1.564285E-6	-49.04482
1.56433E-6	-49.048306
1.564375E-6	-49.065783
1.56442E-6	-49.051796
1.564465E-6	-48.800846
1.56451E-6	-48.029953
1.564555E-6	-47.21475
1.5646E-6	-46.850799
1.564645E-6	-46.786087
1.56469E-6	-46.794383
1.564735E-6	-46.827727
1.56478E-6	-46.850799
1.564825E-6	-46.888822
1.56487E-6	-47.084092
1.564915E-6	-47.710866
1.56496E-6	-48.610661
1.565005E-6	-49.143527
1.56505E-6	-49.292235
1.565095E-6	-49.325572
1.56514E-6	-49.329291
1.565185E-6	-49.34047
1.56523E-6	-49.359166
1.565275E-6	-49.19013
1.56532E-6	-48.498578
1.565365E-6	-47.721133
1.56541E-6	-47.311881
1.565455E-6	-47.219327
1.5655E-6	-47.233085
1.565545E-6	-47.267672
1.56559E-6	-47.293212
1.565635E-6	-47.316561
1.56568E-6	-47.447275
1.565725E-6	-47.988761
1.56577E-6	-48.814046
1.565815E-6	-49.3968
1.56586E-6	-49.574245
1.565905E-6	-49.601894
1.56595E-6	-49.609827
1.565995E-6	-49.645703
1.56604E-6	-49.649707
1.566085E-6	-49.550685
1.56613E-6	-49.006647
1.566175E-6	-48.236193
1.56622E-6	-47.785858
1.566265E-6	-47.675121
1.56631E-6	-47.690404
1.566355E-6	-47.705742
1.5664E-6	-47.731424
1.566445E-6	-47.749493
1.56649E-6	-47.848914
1.566535E-6	-48.271053
1.56658E-6	-49.027427
1.566625E-6	-49.649707
1.56667E-6	-49.838026
1.566715E-6	-49.892761
1.56676E-6	-49.892761
1.566805E-6	-49.918258
1.56685E-6	-49.931063
1.566895E-6	-49.888526
1.56694E-6	-49.473061
1.566985E-6	-48.76475
1.56703E-6	-48.273971
1.567075E-6	-48.147412
1.56712E-6	-48.153086
1.567165E-6	-48.187282
1.56721E-6	-48.215987
1.567255E-6	-48.227522
1.5673E-6	-48.317973
1.567345E-6	-48.651856
1.56739E-6	-49.321855
1.567435E-6	-49.943906
1.56748E-6	-50.185892
1.567525E-6	-50.241548
1.56757E-6	-50.261797
1.567615E-6	-50.312836
1.56766E-6	-50.349395
1.567705E-6	-50.34422
1.56775E-6	-50.062552
1.567795E-6	-49.496202
1.56784E-6	-49.037854
1.567885E-6	-48.917733
1.56793E-6	-48.934691
1.567975E-6	-49.003194
1.56802E-6	-49.065783
1.568065E-6	-49.129288
1.56811E-6	-49.229957
1.568155E-6	-49.50782
1.5682E-6	-50.068725
1.568245E-6	-50.657541
1.56829E-6	-50.976163
1.568335E-6	-51.085183
1.56838E-6	-51.178741
1.568425E-6	-51.257502
1.56847E-6	-51.347775
1.568515E-6	-51.387644
1.56856E-6	-51.308857
1.568605E-6	-50.996329
1.56865E-6	-50.664621
1.568695E-6	-50.609303
1.56874E-6	-50.681355
1.568785E-6	-50.795636
1.56883E-6	-50.924274
1.568875E-6	-51.038597
1.56892E-6	-51.187295
1.568965E-6	-51.387644
1.56901E-6	-51.789452
1.569055E-6	-52.239529
1.5691E-6	-52.513469
1.569145E-6	-52.626483
1.56919E-6	-52.7417
1.569235E-6	-52.824127
1.56928E-6	-52.917491
1.569325E-6	-52.986047
1.56937E-6	-53.019865
1.569415E-6	-52.920043
1.56946E-6	-52.793446
1.569505E-6	-52.776952
1.56955E-6	-52.841637
1.569595E-6	-52.923447
1.56964E-6	-53.019865
1.569685E-6	-53.127387
1.56973E-6	-53.217548
1.569775E-6	-53.330143
1.56982E-6	-53.524214
1.569865E-6	-53.745846
1.56991E-6	-53.883829
1.569955E-6	-53.978314
1.57E-6	-54.015378
