Wavelength (nm)	Power (dBm)
1.525E-6	-47.070797
1.525045E-6	-46.981023
1.52509E-6	-46.878226
1.525135E-6	-46.781945
1.52518E-6	-46.683703
1.525225E-6	-46.577748
1.52527E-6	-46.478175
1.525315E-6	-46.40544
1.52536E-6	-46.304131
1.525405E-6	-46.219657
1.52545E-6	-46.124322
1.525495E-6	-46.029295
1.52554E-6	-45.946536
1.525585E-6	-45.86365
1.52563E-6	-45.780672
1.525675E-6	-45.700863
1.52572E-6	-45.600361
1.525765E-6	-45.516029
1.52581E-6	-45.460704
1.525855E-6	-45.383514
1.5259E-6	-45.329842
1.525945E-6	-45.234582
1.52599E-6	-45.172693
1.526035E-6	-45.117314
1.52608E-6	-45.061239
1.526125E-6	-44.989407
1.52617E-6	-44.903943
1.526215E-6	-44.832003
1.52626E-6	-44.750849
1.526305E-6	-44.701848
1.52635E-6	-44.629369
1.526395E-6	-44.546929
1.52644E-6	-44.48428
1.526485E-6	-44.42132
1.52653E-6	-44.374692
1.526575E-6	-44.325031
1.52662E-6	-44.277094
1.526665E-6	-44.243504
1.52671E-6	-44.166878
1.526755E-6	-44.113922
1.5268E-6	-44.094925
1.526845E-6	-44.053865
1.52689E-6	-43.997897
1.526935E-6	-43.929741
1.52698E-6	-43.881705
1.527025E-6	-43.868985
1.52707E-6	-43.808023
1.527115E-6	-43.732491
1.52716E-6	-43.709984
1.527205E-6	-43.657243
1.52725E-6	-43.631111
1.527295E-6	-43.567448
1.52734E-6	-43.555614
1.527385E-6	-43.506651
1.52743E-6	-43.474636
1.527475E-6	-43.449577
1.52752E-6	-43.447655
1.527565E-6	-43.423706
1.52761E-6	-43.392294
1.527655E-6	-43.35452
1.5277E-6	-43.306831
1.527745E-6	-43.28642
1.52779E-6	-43.264262
1.527835E-6	-43.238553
1.52788E-6	-43.170431
1.527925E-6	-43.148855
1.52797E-6	-43.1078
1.528015E-6	-43.112243
1.52806E-6	-43.069769
1.528105E-6	-43.065369
1.52815E-6	-43.033815
1.528195E-6	-43.029451
1.52824E-6	-43.021606
1.528285E-6	-43.013776
1.52833E-6	-43.02422
1.528375E-6	-43.00249
1.52842E-6	-42.961929
1.528465E-6	-42.983457
1.52851E-6	-42.946495
1.528555E-6	-42.947351
1.5286E-6	-42.915791
1.528645E-6	-42.883615
1.52869E-6	-42.844144
1.528735E-6	-42.839967
1.52878E-6	-42.817475
1.528825E-6	-42.806687
1.52887E-6	-42.79758
1.528915E-6	-42.790143
1.52896E-6	-42.766264
1.529005E-6	-42.783542
1.52905E-6	-42.824127
1.529095E-6	-42.8208
1.52914E-6	-42.79758
1.529185E-6	-42.805858
1.52923E-6	-42.790143
1.529275E-6	-42.78107
1.52932E-6	-42.785191
1.529365E-6	-42.7597
1.52941E-6	-42.740067
1.529455E-6	-42.718898
1.5295E-6	-42.692985
1.529545E-6	-42.688143
1.52959E-6	-42.684918
1.529635E-6	-42.688143
1.52968E-6	-42.69137
1.529725E-6	-42.680891
1.52977E-6	-42.701875
1.529815E-6	-42.724587
1.52986E-6	-42.746602
1.529905E-6	-42.72947
1.52995E-6	-42.723774
1.529995E-6	-42.727028
1.53004E-6	-42.740884
1.530085E-6	-42.752328
1.53013E-6	-42.749055
1.530175E-6	-42.701066
1.53022E-6	-42.676062
1.530265E-6	-42.688949
1.53031E-6	-42.682501
1.530355E-6	-42.690563
1.5304E-6	-42.675258
1.530445E-6	-42.667225
1.53049E-6	-42.669633
1.530535E-6	-42.727028
1.53058E-6	-42.718898
1.530625E-6	-42.7417
1.53067E-6	-42.749873
1.530715E-6	-42.7597
1.53076E-6	-42.74415
1.530805E-6	-42.774483
1.53085E-6	-42.772838
1.530895E-6	-42.775306
1.53094E-6	-42.76134
1.530985E-6	-42.740884
1.53103E-6	-42.735988
1.531075E-6	-42.772838
1.53112E-6	-42.76052
1.531165E-6	-42.7597
1.53121E-6	-42.776952
1.531255E-6	-42.780246
1.5313E-6	-42.795099
1.531345E-6	-42.826624
1.53139E-6	-42.865935
1.531435E-6	-42.870138
1.53148E-6	-42.881085
1.531525E-6	-42.9073
1.53157E-6	-42.914092
1.531615E-6	-42.943928
1.53166E-6	-42.927706
1.531705E-6	-42.927706
1.53175E-6	-42.92515
1.531795E-6	-42.954206
1.53184E-6	-42.954206
1.531885E-6	-42.951634
1.53193E-6	-42.963648
1.531975E-6	-42.96107
1.53202E-6	-43.014645
1.532065E-6	-43.044308
1.53211E-6	-43.066248
1.532155E-6	-43.102473
1.5322E-6	-43.125602
1.532245E-6	-43.14527
1.53229E-6	-43.163227
1.532335E-6	-43.185778
1.53238E-6	-43.213906
1.532425E-6	-43.222106
1.53247E-6	-43.237638
1.532515E-6	-43.236723
1.53256E-6	-43.262421
1.532605E-6	-43.272558
1.53265E-6	-43.29105
1.532695E-6	-43.300326
1.53274E-6	-43.322669
1.532785E-6	-43.363933
1.53283E-6	-43.384713
1.532875E-6	-43.440936
1.53292E-6	-43.458235
1.532965E-6	-43.508599
1.53301E-6	-43.538905
1.533055E-6	-43.569423
1.5331E-6	-43.621102
1.533145E-6	-43.645163
1.53319E-6	-43.661277
1.533235E-6	-43.687592
1.53328E-6	-43.693688
1.533325E-6	-43.7202
1.53337E-6	-43.73044
1.533415E-6	-43.749964
1.53346E-6	-43.771645
1.533505E-6	-43.798639
1.53355E-6	-43.851028
1.533595E-6	-43.896593
1.53364E-6	-43.922234
1.533685E-6	-43.960982
1.53373E-6	-44.007721
1.533775E-6	-44.047243
1.53382E-6	-44.094925
1.533865E-6	-44.14201
1.53391E-6	-44.173686
1.533955E-6	-44.207882
1.534E-6	-44.233132
1.534045E-6	-44.272445
1.53409E-6	-44.286406
1.534135E-6	-44.330913
1.53418E-6	-44.329736
1.534225E-6	-44.356891
1.53427E-6	-44.372315
1.534315E-6	-44.434563
1.53436E-6	-44.46117
1.534405E-6	-44.505063
1.53445E-6	-44.540747
1.534495E-6	-44.621809
1.53454E-6	-44.67373
1.534585E-6	-44.710833
1.53463E-6	-44.766438
1.534675E-6	-44.793855
1.53472E-6	-44.818811
1.534765E-6	-44.861168
1.53481E-6	-44.903943
1.534855E-6	-44.940365
1.5349E-6	-44.947143
1.534945E-6	-44.960732
1.53499E-6	-44.971634
1.535035E-6	-45.021033
1.53508E-6	-45.066814
1.535125E-6	-45.103227
1.53517E-6	-45.148467
1.535215E-6	-45.184141
1.53526E-6	-45.230235
1.535305E-6	-45.303252
1.53535E-6	-45.36555
1.535395E-6	-45.394028
1.53544E-6	-45.440898
1.535485E-6	-45.466817
1.53553E-6	-45.497509
1.535575E-6	-45.52842
1.53562E-6	-45.561115
1.535665E-6	-45.573635
1.53571E-6	-45.57677
1.535755E-6	-45.597208
1.5358E-6	-45.616159
1.535845E-6	-45.670307
1.53589E-6	-45.721894
1.535935E-6	-45.725139
1.53598E-6	-45.744658
1.536025E-6	-45.803746
1.53607E-6	-45.850267
1.536115E-6	-45.932895
1.53616E-6	-45.982549
1.536205E-6	-45.989443
1.53625E-6	-46.024076
1.536295E-6	-46.043242
1.53634E-6	-46.080069
1.536385E-6	-46.117211
1.53643E-6	-46.143937
1.536475E-6	-46.11366
1.53652E-6	-46.11366
1.536565E-6	-46.143937
1.53661E-6	-46.167233
1.536655E-6	-46.226937
1.5367E-6	-46.219657
1.536745E-6	-46.252517
1.53679E-6	-46.272721
1.536835E-6	-46.328305
1.53688E-6	-46.382722
1.536925E-6	-46.42637
1.53697E-6	-46.462761
1.537015E-6	-46.464684
1.53706E-6	-46.480105
1.537105E-6	-46.522798
1.53715E-6	-46.558043
1.537195E-6	-46.552149
1.53724E-6	-46.53647
1.537285E-6	-46.505282
1.53733E-6	-46.505282
1.537375E-6	-46.550186
1.53742E-6	-46.548224
1.537465E-6	-46.571827
1.53751E-6	-46.5738
1.537555E-6	-46.585655
1.5376E-6	-46.633402
1.537645E-6	-46.693833
1.53769E-6	-46.744843
1.537735E-6	-46.73869
1.53778E-6	-46.744843
1.537825E-6	-46.775739
1.53787E-6	-46.773673
1.537915E-6	-46.790233
1.53796E-6	-46.800616
1.538005E-6	-46.784016
1.53805E-6	-46.74895
1.538095E-6	-46.74895
1.53814E-6	-46.751005
1.538185E-6	-46.753061
1.53823E-6	-46.761294
1.538275E-6	-46.751005
1.53832E-6	-46.765416
1.538365E-6	-46.784016
1.53841E-6	-46.821455
1.538455E-6	-46.873996
1.5385E-6	-46.893067
1.538545E-6	-46.8867
1.53859E-6	-46.905828
1.538635E-6	-46.907958
1.53868E-6	-46.918626
1.538725E-6	-46.918626
1.53877E-6	-46.895191
1.538815E-6	-46.844495
1.53886E-6	-46.846595
1.538905E-6	-46.825635
1.53895E-6	-46.811023
1.538995E-6	-46.813107
1.53904E-6	-46.806857
1.539085E-6	-46.79646
1.53913E-6	-46.825635
1.539175E-6	-46.842395
1.53922E-6	-46.888822
1.539265E-6	-46.895191
1.53931E-6	-46.90157
1.539355E-6	-46.91009
1.5394E-6	-46.92504
1.539445E-6	-46.914356
1.53949E-6	-46.920763
1.539535E-6	-46.907958
1.53958E-6	-46.876111
1.539625E-6	-46.838199
1.53967E-6	-46.802695
1.539715E-6	-46.802695
1.53976E-6	-46.777807
1.539805E-6	-46.775739
1.53985E-6	-46.775739
1.539895E-6	-46.767479
1.53994E-6	-46.794383
1.539985E-6	-46.804776
1.54003E-6	-46.844495
1.540075E-6	-46.857113
1.54012E-6	-46.844495
1.540165E-6	-46.846595
1.54021E-6	-46.850799
1.540255E-6	-46.836102
1.5403E-6	-46.819367
1.540345E-6	-46.786087
1.54039E-6	-46.765416
1.540435E-6	-46.74074
1.54048E-6	-46.718243
1.540525E-6	-46.691805
1.54057E-6	-46.679657
1.540615E-6	-46.647427
1.54066E-6	-46.68168
1.540705E-6	-46.679657
1.54075E-6	-46.683703
1.540795E-6	-46.701955
1.54084E-6	-46.74074
1.540885E-6	-46.736641
1.54093E-6	-46.755118
1.540975E-6	-46.742791
1.54102E-6	-46.744843
1.541065E-6	-46.728455
1.54111E-6	-46.701955
1.541155E-6	-46.683703
1.5412E-6	-46.643415
1.541245E-6	-46.607474
1.54129E-6	-46.567884
1.541335E-6	-46.567884
1.54138E-6	-46.552149
1.541425E-6	-46.556077
1.54147E-6	-46.548224
1.541515E-6	-46.554113
1.54156E-6	-46.561977
1.541605E-6	-46.595559
1.54165E-6	-46.619421
1.541695E-6	-46.627405
1.54174E-6	-46.637404
1.541785E-6	-46.617428
1.54183E-6	-46.611453
1.541875E-6	-46.599527
1.54192E-6	-46.585655
1.541965E-6	-46.556077
1.54201E-6	-46.522798
1.542055E-6	-46.464684
1.5421E-6	-46.432095
1.542145E-6	-46.432095
1.54219E-6	-46.449318
1.542235E-6	-46.455074
1.54228E-6	-46.434006
1.542325E-6	-46.437829
1.54237E-6	-46.449318
1.542415E-6	-46.511113
1.54246E-6	-46.522798
1.542505E-6	-46.546263
1.54255E-6	-46.515004
1.542595E-6	-46.501399
1.54264E-6	-46.493644
1.542685E-6	-46.511113
1.54273E-6	-46.509168
1.542775E-6	-46.462761
1.54282E-6	-46.399749
1.542865E-6	-46.371407
1.54291E-6	-46.369524
1.542955E-6	-46.362001
1.543E-6	-46.371407
1.543045E-6	-46.369524
1.54309E-6	-46.362001
1.543135E-6	-46.394066
1.54318E-6	-46.422557
1.543225E-6	-46.466609
1.54327E-6	-46.482037
1.543315E-6	-46.472388
1.54336E-6	-46.462761
1.543405E-6	-46.449318
1.54345E-6	-46.455074
1.543495E-6	-46.458916
1.54354E-6	-46.432095
1.543585E-6	-46.3865
1.54363E-6	-46.341378
1.543675E-6	-46.332036
1.54372E-6	-46.339508
1.543765E-6	-46.337639
1.54381E-6	-46.337639
1.543855E-6	-46.341378
1.5439E-6	-46.339508
1.543945E-6	-46.378947
1.54399E-6	-46.437829
1.544035E-6	-46.470461
1.54408E-6	-46.470461
1.544125E-6	-46.476245
1.54417E-6	-46.462761
1.544215E-6	-46.476245
1.54426E-6	-46.474316
1.544305E-6	-46.487837
1.54435E-6	-46.420652
1.544395E-6	-46.375175
1.54444E-6	-46.34512
1.544485E-6	-46.356366
1.54453E-6	-46.362001
1.544575E-6	-46.34512
1.54462E-6	-46.34512
1.544665E-6	-46.356366
1.54471E-6	-46.360122
1.544755E-6	-46.42637
1.5448E-6	-46.449318
1.544845E-6	-46.493644
1.54489E-6	-46.495581
1.544935E-6	-46.482037
1.54498E-6	-46.501399
1.545025E-6	-46.458916
1.54507E-6	-46.307841
1.545115E-6	-42.926002
1.54516E-6	-34.218194
1.545205E-6	-29.321855
1.54525E-6	-27.253804
1.545295E-6	-26.834007
1.54534E-6	-26.74074
1.545385E-6	-26.718243
1.54543E-6	-26.714166
1.545475E-6	-27.194216
1.54552E-6	-29.366666
1.545565E-6	-34.23083
1.54561E-6	-42.120439
1.545655E-6	-45.878756
1.5457E-6	-46.395959
1.545745E-6	-46.487837
1.54579E-6	-46.532559
1.545835E-6	-46.550186
1.54588E-6	-46.544302
1.545925E-6	-46.522798
1.54597E-6	-46.476245
1.546015E-6	-46.449318
1.54606E-6	-46.455074
1.546105E-6	-46.460838
1.54615E-6	-46.439741
1.546195E-6	-46.432095
1.54624E-6	-46.435917
1.546285E-6	-46.458916
1.54633E-6	-46.511113
1.546375E-6	-46.552149
1.54642E-6	-46.577748
1.546465E-6	-46.587634
1.54651E-6	-46.597542
1.546555E-6	-46.615435
1.5466E-6	-46.617428
1.546645E-6	-46.613443
1.54669E-6	-46.601512
1.546735E-6	-46.585655
1.54678E-6	-46.554113
1.546825E-6	-46.520848
1.54687E-6	-46.516951
1.546915E-6	-46.507225
1.54696E-6	-46.515004
1.547005E-6	-46.515004
1.54705E-6	-46.516951
1.547095E-6	-46.544302
1.54714E-6	-46.581699
1.547185E-6	-46.633402
1.54723E-6	-46.651443
1.547275E-6	-46.655462
1.54732E-6	-46.683703
1.547365E-6	-46.697892
1.54741E-6	-46.697892
1.547455E-6	-46.683703
1.5475E-6	-46.66956
1.547545E-6	-46.651443
1.54759E-6	-46.619421
1.547635E-6	-46.589614
1.54768E-6	-46.579723
1.547725E-6	-46.581699
1.54777E-6	-46.585655
1.547815E-6	-46.587634
1.54786E-6	-46.615435
1.547905E-6	-46.621416
1.54795E-6	-46.667543
1.547995E-6	-46.708056
1.54804E-6	-46.7305
1.548085E-6	-46.751005
1.54813E-6	-46.777807
1.548175E-6	-46.769543
1.54822E-6	-46.759234
1.548265E-6	-46.753061
1.54831E-6	-46.753061
1.548355E-6	-46.726411
1.5484E-6	-46.685727
1.548445E-6	-46.639407
1.54849E-6	-46.637404
1.548535E-6	-46.655462
1.54858E-6	-46.649435
1.548625E-6	-46.651443
1.54867E-6	-46.673596
1.548715E-6	-46.685727
1.54876E-6	-46.732546
1.548805E-6	-46.784016
1.54885E-6	-46.79646
1.548895E-6	-46.823545
1.54894E-6	-46.825635
1.548985E-6	-46.811023
1.54903E-6	-46.815193
1.549075E-6	-46.811023
1.54912E-6	-46.798537
1.549165E-6	-46.74074
1.54921E-6	-46.724367
1.549255E-6	-46.693833
1.5493E-6	-46.685727
1.549345E-6	-46.683703
1.54939E-6	-46.695862
1.549435E-6	-46.708056
1.54948E-6	-46.706021
1.549525E-6	-46.732546
1.54957E-6	-46.781945
1.549615E-6	-46.842395
1.54966E-6	-46.850799
1.549705E-6	-46.850799
1.54975E-6	-46.855008
1.549795E-6	-46.831912
1.54984E-6	-46.765416
1.549885E-6	-46.289321
1.54993E-6	-39.347939
1.549975E-6	-31.19701
1.55002E-6	-27.74174
1.550065E-6	-26.653452
1.55011E-6	-26.516951
1.550155E-6	-26.507225
1.5502E-6	-26.437829
1.550245E-6	-26.542343
1.55029E-6	-27.408842
1.550335E-6	-30.331546
1.55038E-6	-37.164726
1.550425E-6	-44.62055
1.55047E-6	-46.493644
1.550515E-6	-46.792308
1.55056E-6	-46.842395
1.550605E-6	-46.855008
1.55065E-6	-46.876111
1.550695E-6	-46.871882
1.55074E-6	-46.834007
1.550785E-6	-46.777807
1.55083E-6	-46.722325
1.550875E-6	-46.722325
1.55092E-6	-46.726411
1.550965E-6	-46.720284
1.55101E-6	-46.73869
1.551055E-6	-46.736641
1.5511E-6	-46.736641
1.551145E-6	-46.781945
1.55119E-6	-46.848697
1.551235E-6	-46.888822
1.55128E-6	-46.876111
1.551325E-6	-46.873996
1.55137E-6	-46.863437
1.551415E-6	-46.85922
1.55146E-6	-46.878226
1.551505E-6	-46.873996
1.55155E-6	-46.819367
1.551595E-6	-46.761294
1.55164E-6	-46.720284
1.551685E-6	-46.724367
1.55173E-6	-46.744843
1.551775E-6	-46.746896
1.55182E-6	-46.716204
1.551865E-6	-46.710091
1.55191E-6	-46.734593
1.551955E-6	-46.790233
1.552E-6	-46.850799
1.552045E-6	-46.878226
1.55209E-6	-46.876111
1.552135E-6	-46.863437
1.55218E-6	-46.871882
1.552225E-6	-46.878226
1.55227E-6	-46.882461
1.552315E-6	-46.855008
1.55236E-6	-46.804776
1.552405E-6	-46.73869
1.55245E-6	-46.720284
1.552495E-6	-46.724367
1.55254E-6	-46.722325
1.552585E-6	-46.732546
1.55263E-6	-46.703988
1.552675E-6	-46.701955
1.55272E-6	-46.736641
1.552765E-6	-46.78816
1.55281E-6	-46.844495
1.552855E-6	-46.85922
1.5529E-6	-46.855008
1.552945E-6	-46.848697
1.55299E-6	-46.863437
1.553035E-6	-46.869769
1.55308E-6	-46.863437
1.553125E-6	-46.825635
1.55317E-6	-46.773673
1.553215E-6	-46.718243
1.55326E-6	-46.712128
1.553305E-6	-46.708056
1.55335E-6	-46.689778
1.553395E-6	-46.695862
1.55344E-6	-46.673596
1.553485E-6	-46.685727
1.55353E-6	-46.712128
1.553575E-6	-46.786087
1.55362E-6	-46.842395
1.553665E-6	-46.848697
1.55371E-6	-46.850799
1.553755E-6	-46.848697
1.5538E-6	-46.852903
1.553845E-6	-46.85922
1.55389E-6	-46.846595
1.553935E-6	-46.821455
1.55398E-6	-46.757175
1.554025E-6	-46.706021
1.55407E-6	-46.697892
1.554115E-6	-46.687752
1.55416E-6	-46.671577
1.554205E-6	-46.663512
1.55425E-6	-46.66956
1.554295E-6	-46.685727
1.55434E-6	-46.710091
1.554385E-6	-46.779876
1.55443E-6	-46.817279
1.554475E-6	-46.831912
1.55452E-6	-46.848697
1.554565E-6	-46.846595
1.55461E-6	-46.848697
1.554655E-6	-46.850799
1.5547E-6	-46.838199
1.554745E-6	-46.794383
1.55479E-6	-46.736641
1.554835E-6	-46.689778
1.55488E-6	-46.677636
1.554925E-6	-46.663512
1.55497E-6	-46.645421
1.555015E-6	-46.649435
1.55506E-6	-46.661499
1.555105E-6	-46.667543
1.55515E-6	-46.706021
1.555195E-6	-46.769543
1.55524E-6	-46.811023
1.555285E-6	-46.827727
1.55533E-6	-46.838199
1.555375E-6	-46.857113
1.55542E-6	-46.831912
1.555465E-6	-46.834007
1.55551E-6	-46.823545
1.555555E-6	-46.800616
1.5556E-6	-46.734593
1.555645E-6	-46.689778
1.55569E-6	-46.673596
1.555735E-6	-46.665527
1.55578E-6	-46.655462
1.555825E-6	-46.663512
1.55587E-6	-46.659486
1.555915E-6	-46.66956
1.55596E-6	-46.712128
1.556005E-6	-46.765416
1.55605E-6	-46.821455
1.556095E-6	-46.850799
1.55614E-6	-46.867657
1.556185E-6	-46.850799
1.55623E-6	-46.844495
1.556275E-6	-46.855008
1.55632E-6	-46.861328
1.556365E-6	-46.817279
1.55641E-6	-46.755118
1.556455E-6	-46.691805
1.5565E-6	-46.675615
1.556545E-6	-46.66956
1.55659E-6	-46.687752
1.556635E-6	-46.687752
1.55668E-6	-46.691805
1.556725E-6	-46.703988
1.55677E-6	-46.732546
1.556815E-6	-46.802695
1.55686E-6	-46.869769
1.556905E-6	-46.890944
1.55695E-6	-46.90157
1.556995E-6	-46.893067
1.55704E-6	-46.893067
1.557085E-6	-46.890944
1.55713E-6	-46.903698
1.557175E-6	-46.882461
1.55722E-6	-46.804776
1.557265E-6	-46.759234
1.55731E-6	-46.726411
1.557355E-6	-46.744843
1.5574E-6	-46.742791
1.557445E-6	-46.771607
1.55749E-6	-46.765416
1.557535E-6	-46.761294
1.55758E-6	-46.804776
1.557625E-6	-46.88458
1.55767E-6	-46.948637
1.557715E-6	-46.970201
1.55776E-6	-46.9897
1.557805E-6	-46.983191
1.55785E-6	-46.9897
1.557895E-6	-46.996219
1.55794E-6	-46.9897
1.557985E-6	-46.965879
1.55803E-6	-46.903698
1.558075E-6	-46.846595
1.55812E-6	-46.836102
1.558165E-6	-46.834007
1.55821E-6	-46.846595
1.558255E-6	-46.855008
1.5583E-6	-46.863437
1.558345E-6	-46.869769
1.55839E-6	-46.922901
1.558435E-6	-47.009287
1.55848E-6	-47.084092
1.558525E-6	-47.108572
1.55857E-6	-47.110804
1.558615E-6	-47.101882
1.55866E-6	-47.121983
1.558705E-6	-47.142177
1.55875E-6	-47.142177
1.558795E-6	-47.110804
1.55884E-6	-47.028963
1.558885E-6	-46.985359
1.55893E-6	-46.991872
1.558975E-6	-47.002748
1.55902E-6	-47.015836
1.559065E-6	-47.020208
1.55911E-6	-47.015836
1.559155E-6	-47.042131
1.5592E-6	-47.108572
1.559245E-6	-47.198771
1.55929E-6	-47.263044
1.559335E-6	-47.269987
1.55938E-6	-47.288557
1.559425E-6	-47.293212
1.55947E-6	-47.325936
1.559515E-6	-47.344747
1.55956E-6	-47.347104
1.559605E-6	-47.304871
1.55965E-6	-47.23998
1.559695E-6	-47.207895
1.55974E-6	-47.207895
1.559785E-6	-47.223908
1.55983E-6	-47.242281
1.559875E-6	-47.233085
1.55992E-6	-47.244583
1.559965E-6	-47.276942
1.56001E-6	-47.340036
1.560055E-6	-47.437635
1.5601E-6	-47.503126
1.560145E-6	-47.522722
1.56019E-6	-47.520267
1.560235E-6	-47.547342
1.56028E-6	-47.574586
1.560325E-6	-47.597004
1.56037E-6	-47.592012
1.560415E-6	-47.567139
1.56046E-6	-47.493361
1.560505E-6	-47.469044
1.56055E-6	-47.47147
1.560595E-6	-47.4958
1.56064E-6	-47.493361
1.560685E-6	-47.510464
1.56073E-6	-47.517814
1.560775E-6	-47.544873
1.56082E-6	-47.619539
1.560865E-6	-47.700623
1.56091E-6	-47.762445
1.560955E-6	-47.801536
1.561E-6	-47.81202
1.561045E-6	-47.838341
1.56109E-6	-47.87546
1.561135E-6	-47.878124
1.56118E-6	-47.888795
1.561225E-6	-47.85421
1.56127E-6	-47.822529
1.561315E-6	-47.780644
1.56136E-6	-47.77804
1.561405E-6	-47.785858
1.56145E-6	-47.806775
1.561495E-6	-47.822529
1.56154E-6	-47.838341
1.561585E-6	-47.886124
1.56163E-6	-47.929045
1.561675E-6	-48.016179
1.56172E-6	-48.091083
1.561765E-6	-48.116341
1.56181E-6	-48.150248
1.561855E-6	-48.181564
1.5619E-6	-48.204482
1.561945E-6	-48.210231
1.56199E-6	-48.213108
1.562035E-6	-48.207355
1.56208E-6	-48.164455
1.562125E-6	-48.136088
1.56217E-6	-48.133261
1.562215E-6	-48.133261
1.56226E-6	-48.147412
1.562305E-6	-48.167302
1.56235E-6	-48.193008
1.562395E-6	-48.224635
1.56244E-6	-48.282735
1.562485E-6	-48.356471
1.56253E-6	-48.443604
1.562575E-6	-48.489367
1.56262E-6	-48.526329
1.562665E-6	-48.551146
1.56271E-6	-48.576105
1.562755E-6	-48.591778
1.5628E-6	-48.59492
1.562845E-6	-48.59492
1.56289E-6	-48.563608
1.562935E-6	-48.529423
1.56298E-6	-48.513973
1.563025E-6	-48.513973
1.56307E-6	-48.541823
1.563115E-6	-48.563608
1.56316E-6	-48.588639
1.563205E-6	-48.632794
1.56325E-6	-48.687022
1.563295E-6	-48.745187
1.56334E-6	-48.843895
1.563385E-6	-48.890738
1.56343E-6	-48.934691
1.563475E-6	-48.961963
1.56352E-6	-48.975663
1.563565E-6	-48.982529
1.56361E-6	-49.006647
1.563655E-6	-49.027427
1.5637E-6	-48.992849
1.563745E-6	-48.948306
1.56379E-6	-48.924509
1.563835E-6	-48.961963
1.56388E-6	-48.965384
1.563925E-6	-48.999743
1.56397E-6	-49.0309
1.564015E-6	-49.048306
1.56406E-6	-49.093893
1.564105E-6	-49.179331
1.56415E-6	-49.277501
1.564195E-6	-49.333014
1.56424E-6	-49.37418
1.564285E-6	-49.389247
1.56433E-6	-49.41574
1.564375E-6	-49.427144
1.56442E-6	-49.453869
1.564465E-6	-49.473061
1.56451E-6	-49.450041
1.564555E-6	-49.411945
1.5646E-6	-49.37418
1.564645E-6	-49.400581
1.56469E-6	-49.430951
1.564735E-6	-49.469216
1.56478E-6	-49.500071
1.564825E-6	-49.515582
1.56487E-6	-49.550685
1.564915E-6	-49.641702
1.56496E-6	-49.742846
1.565005E-6	-49.800533
1.56505E-6	-49.846402
1.565095E-6	-49.858997
1.56514E-6	-49.897
1.565185E-6	-49.901244
1.56523E-6	-49.952488
1.565275E-6	-49.961088
1.56532E-6	-49.943906
1.565365E-6	-49.888526
1.56541E-6	-49.854795
1.565455E-6	-49.871628
1.5655E-6	-49.913998
1.565545E-6	-49.943906
1.56559E-6	-49.97402
1.565635E-6	-49.995659
1.56568E-6	-50.023079
1.565725E-6	-50.105057
1.56577E-6	-50.219108
1.565815E-6	-50.295601
1.56586E-6	-50.336705
1.565905E-6	-50.346572
1.56595E-6	-50.362594
1.565995E-6	-50.393865
1.56604E-6	-50.435914
1.566085E-6	-50.46772
1.56613E-6	-50.435914
1.566175E-6	-50.378201
1.56622E-6	-50.357404
1.566265E-6	-50.383417
1.56631E-6	-50.425364
1.566355E-6	-50.451788
1.5664E-6	-50.46772
1.566445E-6	-50.494404
1.56649E-6	-50.521253
1.566535E-6	-50.60331
1.56658E-6	-50.703257
1.566625E-6	-50.776898
1.56667E-6	-50.828622
1.566715E-6	-50.840201
1.56676E-6	-50.875122
1.566805E-6	-50.887358
1.56685E-6	-50.940423
1.566895E-6	-50.958256
1.56694E-6	-50.94852
1.566985E-6	-50.90658
1.56703E-6	-50.870874
1.567075E-6	-50.877248
1.56712E-6	-50.918368
1.567165E-6	-50.954467
1.56721E-6	-50.978339
1.567255E-6	-51.013845
1.5673E-6	-51.044117
1.567345E-6	-51.112029
1.56739E-6	-51.212485
1.567435E-6	-51.284854
1.56748E-6	-51.330042
1.567525E-6	-51.363203
1.56757E-6	-51.389438
1.567615E-6	-51.422455
1.56766E-6	-51.469105
1.567705E-6	-51.503349
1.56775E-6	-51.503349
1.567795E-6	-51.482526
1.56784E-6	-51.469105
1.567885E-6	-51.503349
1.56793E-6	-51.509493
1.567975E-6	-51.573908
1.56802E-6	-51.608363
1.568065E-6	-51.650709
1.56811E-6	-51.706962
1.568155E-6	-51.771784
1.5682E-6	-51.87354
1.568245E-6	-51.970211
1.56829E-6	-52.023863
1.568335E-6	-52.070483
1.56838E-6	-52.116902
1.568425E-6	-52.17599
1.56847E-6	-52.215593
1.568515E-6	-52.271651
1.56856E-6	-52.296636
1.568605E-6	-52.296636
1.56865E-6	-52.36123
1.568695E-6	-52.395021
1.56874E-6	-52.453459
1.568785E-6	-52.496459
1.56883E-6	-52.556288
1.568875E-6	-52.608234
1.56892E-6	-52.670436
1.568965E-6	-52.750691
1.56901E-6	-52.851675
1.569055E-6	-52.89798
1.5691E-6	-52.97311
1.569145E-6	-53.023348
1.56919E-6	-53.1078
1.569235E-6	-53.14527
1.56928E-6	-53.200273
1.569325E-6	-53.22393
1.56937E-6	-53.263341
1.569415E-6	-53.309622
1.56946E-6	-53.370534
1.569505E-6	-53.406544
1.56955E-6	-53.447655
1.569595E-6	-53.497896
1.56964E-6	-53.52617
1.569685E-6	-53.584267
1.56973E-6	-53.635121
1.569775E-6	-53.694704
1.56982E-6	-53.747905
1.569865E-6	-53.769576
1.56991E-6	-53.818473
1.569955E-6	-53.859469
1.57E-6	-53.923306
