Wavelength (nm)	Power (dBm)
1.525E-6	-48.651856
1.525045E-6	-48.569852
1.52509E-6	-48.467951
1.525135E-6	-48.37137
1.52518E-6	-48.262312
1.525225E-6	-48.164455
1.52527E-6	-48.074325
1.525315E-6	-47.983298
1.52536E-6	-47.888795
1.525405E-6	-47.804155
1.52545E-6	-47.71343
1.525495E-6	-47.624563
1.52554E-6	-47.544873
1.525585E-6	-47.454519
1.52563E-6	-47.382615
1.525675E-6	-47.304871
1.52572E-6	-47.219327
1.525765E-6	-47.130946
1.52581E-6	-47.055338
1.525855E-6	-46.998395
1.5259E-6	-46.93575
1.525945E-6	-46.840297
1.52599E-6	-46.779876
1.526035E-6	-46.708056
1.52608E-6	-46.657474
1.526125E-6	-46.597542
1.52617E-6	-46.522798
1.526215E-6	-46.447401
1.52626E-6	-46.38839
1.526305E-6	-46.320853
1.52635E-6	-46.259853
1.526395E-6	-46.19427
1.52644E-6	-46.11366
1.526485E-6	-46.057235
1.52653E-6	-45.999804
1.526575E-6	-45.973948
1.52662E-6	-45.914209
1.526665E-6	-45.855281
1.52671E-6	-45.782316
1.526755E-6	-45.747919
1.5268E-6	-45.713793
1.526845E-6	-45.689581
1.52689E-6	-45.627252
1.526935E-6	-45.579908
1.52698E-6	-45.520671
1.527025E-6	-45.480601
1.52707E-6	-45.453076
1.527115E-6	-45.401554
1.52716E-6	-45.319482
1.527205E-6	-45.287083
1.52725E-6	-45.249102
1.527295E-6	-45.225893
1.52734E-6	-45.201369
1.527385E-6	-45.174122
1.52743E-6	-45.148467
1.527475E-6	-45.100415
1.52752E-6	-45.07519
1.527565E-6	-45.041782
1.52761E-6	-45.032087
1.527655E-6	-44.990778
1.5277E-6	-44.9485
1.527745E-6	-44.92684
1.52779E-6	-44.933597
1.527835E-6	-44.873156
1.52788E-6	-44.877159
1.527925E-6	-44.834646
1.52797E-6	-44.821446
1.528015E-6	-44.763836
1.52806E-6	-44.758636
1.528105E-6	-44.770344
1.52815E-6	-44.749552
1.528195E-6	-44.704413
1.52824E-6	-44.719837
1.528285E-6	-44.723701
1.52833E-6	-44.717262
1.528375E-6	-44.70313
1.52842E-6	-44.689045
1.528465E-6	-44.654662
1.52851E-6	-44.613006
1.528555E-6	-44.638205
1.5286E-6	-44.640733
1.528645E-6	-44.628108
1.52869E-6	-44.602968
1.528735E-6	-44.550642
1.52878E-6	-44.570502
1.528825E-6	-44.55932
1.52887E-6	-44.57299
1.528915E-6	-44.519793
1.52896E-6	-44.550642
1.529005E-6	-44.546929
1.52905E-6	-44.55312
1.529095E-6	-44.550642
1.52914E-6	-44.558079
1.529185E-6	-44.521023
1.52923E-6	-44.556839
1.529275E-6	-44.551881
1.52932E-6	-44.532106
1.529365E-6	-44.555599
1.52941E-6	-44.517335
1.529455E-6	-44.532106
1.5295E-6	-44.528409
1.529545E-6	-44.517335
1.52959E-6	-44.535807
1.529635E-6	-44.524714
1.52968E-6	-44.519793
1.529725E-6	-44.505063
1.52977E-6	-44.530874
1.529815E-6	-44.537042
1.52986E-6	-44.556839
1.529905E-6	-44.548166
1.52995E-6	-44.545692
1.529995E-6	-44.525945
1.53004E-6	-44.550642
1.530085E-6	-44.546929
1.53013E-6	-44.55932
1.530175E-6	-44.55932
1.53022E-6	-44.512422
1.530265E-6	-44.522253
1.53031E-6	-44.522253
1.530355E-6	-44.554359
1.5304E-6	-44.566771
1.530445E-6	-44.517335
1.53049E-6	-44.545692
1.530535E-6	-44.546929
1.53058E-6	-44.568014
1.530625E-6	-44.604221
1.53067E-6	-44.61175
1.530715E-6	-44.595454
1.53076E-6	-44.564286
1.530805E-6	-44.624327
1.53085E-6	-44.631891
1.530895E-6	-44.641997
1.53094E-6	-44.631891
1.530985E-6	-44.619292
1.53103E-6	-44.592952
1.531075E-6	-44.621809
1.53112E-6	-44.625587
1.531165E-6	-44.649592
1.53121E-6	-44.638205
1.531255E-6	-44.634416
1.5313E-6	-44.662279
1.531345E-6	-44.666093
1.53139E-6	-44.70313
1.531435E-6	-44.715976
1.53148E-6	-44.727569
1.531525E-6	-44.730149
1.53157E-6	-44.7379
1.531615E-6	-44.763836
1.53166E-6	-44.752146
1.531705E-6	-44.766438
1.53175E-6	-44.762535
1.531795E-6	-44.754741
1.53184E-6	-44.762535
1.531885E-6	-44.800408
1.53193E-6	-44.814861
1.531975E-6	-44.8096
1.53202E-6	-44.817493
1.532065E-6	-44.855851
1.53211E-6	-44.878495
1.532155E-6	-44.87983
1.5322E-6	-44.90932
1.532245E-6	-44.92414
1.53229E-6	-44.940365
1.532335E-6	-44.951215
1.53238E-6	-44.997635
1.532425E-6	-45.000381
1.53247E-6	-45.007254
1.532515E-6	-45.000381
1.53256E-6	-44.988038
1.532605E-6	-45.016894
1.53265E-6	-45.043169
1.532695E-6	-45.068209
1.53274E-6	-45.076587
1.532785E-6	-45.090588
1.53283E-6	-45.107448
1.532875E-6	-45.15985
1.53292E-6	-45.164127
1.532965E-6	-45.201369
1.53301E-6	-45.214335
1.533055E-6	-45.228787
1.5331E-6	-45.263671
1.533145E-6	-45.298836
1.53319E-6	-45.306199
1.533235E-6	-45.316527
1.53328E-6	-45.341712
1.533325E-6	-45.36107
1.53337E-6	-45.350636
1.533415E-6	-45.394028
1.53346E-6	-45.409092
1.533505E-6	-45.43027
1.53355E-6	-45.434821
1.533595E-6	-45.453076
1.53364E-6	-45.505216
1.533685E-6	-45.533075
1.53373E-6	-45.533075
1.533775E-6	-45.590909
1.53382E-6	-45.592483
1.533865E-6	-45.643149
1.53391E-6	-45.684754
1.533955E-6	-45.663902
1.534E-6	-45.694412
1.534045E-6	-45.713793
1.53409E-6	-45.746288
1.534135E-6	-45.785606
1.53418E-6	-45.797141
1.534225E-6	-45.780672
1.53427E-6	-45.800443
1.534315E-6	-45.83859
1.53436E-6	-45.856953
1.534405E-6	-45.907433
1.53445E-6	-45.920995
1.534495E-6	-45.949953
1.53454E-6	-45.979106
1.534585E-6	-46.004993
1.53463E-6	-46.043242
1.534675E-6	-46.076548
1.53472E-6	-46.106567
1.534765E-6	-46.118988
1.53481E-6	-46.140364
1.534855E-6	-46.151092
1.5349E-6	-46.174427
1.534945E-6	-46.201508
1.53499E-6	-46.188849
1.535035E-6	-46.205132
1.53508E-6	-46.237881
1.535125E-6	-46.278247
1.53517E-6	-46.320853
1.535215E-6	-46.341378
1.53526E-6	-46.322715
1.535305E-6	-46.397854
1.53535E-6	-46.414941
1.535395E-6	-46.439741
1.53544E-6	-46.443569
1.535485E-6	-46.493644
1.53553E-6	-46.472388
1.535575E-6	-46.495581
1.53562E-6	-46.538427
1.535665E-6	-46.544302
1.53571E-6	-46.563945
1.535755E-6	-46.544302
1.5358E-6	-46.558043
1.535845E-6	-46.583677
1.53589E-6	-46.611453
1.535935E-6	-46.657474
1.53598E-6	-46.673596
1.536025E-6	-46.643415
1.53607E-6	-46.675615
1.536115E-6	-46.724367
1.53616E-6	-46.74895
1.536205E-6	-46.761294
1.53625E-6	-46.761294
1.536295E-6	-46.78816
1.53634E-6	-46.78816
1.536385E-6	-46.821455
1.53643E-6	-46.848697
1.536475E-6	-46.821455
1.53652E-6	-46.811023
1.536565E-6	-46.811023
1.53661E-6	-46.827727
1.536655E-6	-46.863437
1.5367E-6	-46.871882
1.536745E-6	-46.871882
1.53679E-6	-46.882461
1.536835E-6	-46.90157
1.53688E-6	-46.92932
1.536925E-6	-46.955095
1.53697E-6	-46.961562
1.537015E-6	-46.955095
1.53706E-6	-46.970201
1.537105E-6	-46.9897
1.53715E-6	-46.991872
1.537195E-6	-47.024583
1.53724E-6	-46.972363
1.537285E-6	-46.991872
1.53733E-6	-46.970201
1.537375E-6	-46.985359
1.53742E-6	-46.9897
1.537465E-6	-47.007107
1.53751E-6	-46.985359
1.537555E-6	-46.985359
1.5376E-6	-47.013652
1.537645E-6	-47.013652
1.53769E-6	-47.055338
1.537735E-6	-47.064165
1.53778E-6	-47.066374
1.537825E-6	-47.059749
1.53787E-6	-47.037737
1.537915E-6	-47.086311
1.53796E-6	-47.097427
1.538005E-6	-47.090754
1.53805E-6	-47.039933
1.538095E-6	-47.039933
1.53814E-6	-47.022395
1.538185E-6	-47.042131
1.53823E-6	-47.057543
1.538275E-6	-47.057543
1.53832E-6	-47.057543
1.538365E-6	-47.055338
1.53841E-6	-47.057543
1.538455E-6	-47.097427
1.5385E-6	-47.101882
1.538545E-6	-47.070797
1.53859E-6	-47.092978
1.538635E-6	-47.110804
1.53868E-6	-47.090754
1.538725E-6	-47.101882
1.53877E-6	-47.081873
1.538815E-6	-47.057543
1.53886E-6	-47.057543
1.538905E-6	-47.033348
1.53895E-6	-47.035542
1.538995E-6	-47.044329
1.53904E-6	-47.035542
1.539085E-6	-47.028963
1.53913E-6	-47.028963
1.539175E-6	-47.011469
1.53922E-6	-47.064165
1.539265E-6	-47.059749
1.53931E-6	-47.050931
1.539355E-6	-47.046529
1.5394E-6	-47.064165
1.539445E-6	-47.081873
1.53949E-6	-47.07301
1.539535E-6	-47.079656
1.53958E-6	-47.024583
1.539625E-6	-47.024583
1.53967E-6	-47.009287
1.539715E-6	-47.018021
1.53976E-6	-47.022395
1.539805E-6	-47.004927
1.53985E-6	-46.985359
1.539895E-6	-46.983191
1.53994E-6	-47.009287
1.539985E-6	-47.022395
1.54003E-6	-47.044329
1.540075E-6	-47.022395
1.54012E-6	-47.035542
1.540165E-6	-47.011469
1.54021E-6	-47.039933
1.540255E-6	-47.015836
1.5403E-6	-47.009287
1.540345E-6	-47.004927
1.54039E-6	-46.991872
1.540435E-6	-46.985359
1.54048E-6	-46.965879
1.540525E-6	-46.937895
1.54057E-6	-46.952941
1.540615E-6	-46.946486
1.54066E-6	-46.942188
1.540705E-6	-46.933606
1.54075E-6	-46.948637
1.540795E-6	-46.950788
1.54084E-6	-46.968039
1.540885E-6	-46.959405
1.54093E-6	-46.968039
1.540975E-6	-46.981023
1.54102E-6	-46.976691
1.541065E-6	-46.968039
1.54111E-6	-46.959405
1.541155E-6	-46.937895
1.5412E-6	-46.922901
1.541245E-6	-46.905828
1.54129E-6	-46.890944
1.541335E-6	-46.8867
1.54138E-6	-46.882461
1.541425E-6	-46.863437
1.54147E-6	-46.850799
1.541515E-6	-46.867657
1.54156E-6	-46.873996
1.541605E-6	-46.873996
1.54165E-6	-46.907958
1.541695E-6	-46.90157
1.54174E-6	-46.922901
1.541785E-6	-46.937895
1.54183E-6	-46.907958
1.541875E-6	-46.897316
1.54192E-6	-46.88458
1.541965E-6	-46.876111
1.54201E-6	-46.85922
1.542055E-6	-46.836102
1.5421E-6	-46.840297
1.542145E-6	-46.815193
1.54219E-6	-46.811023
1.542235E-6	-46.838199
1.54228E-6	-46.825635
1.542325E-6	-46.806857
1.54237E-6	-46.827727
1.542415E-6	-46.836102
1.54246E-6	-46.852903
1.542505E-6	-46.863437
1.54255E-6	-46.85922
1.542595E-6	-46.852903
1.54264E-6	-46.831912
1.542685E-6	-46.840297
1.54273E-6	-46.831912
1.542775E-6	-46.813107
1.54282E-6	-46.806857
1.542865E-6	-46.78816
1.54291E-6	-46.777807
1.542955E-6	-46.773673
1.543E-6	-46.777807
1.543045E-6	-46.800616
1.54309E-6	-46.767479
1.543135E-6	-46.78816
1.54318E-6	-46.779876
1.543225E-6	-46.831912
1.54327E-6	-46.850799
1.543315E-6	-46.852903
1.54336E-6	-46.857113
1.543405E-6	-46.827727
1.54345E-6	-46.806857
1.543495E-6	-46.813107
1.54354E-6	-46.815193
1.543585E-6	-46.794383
1.54363E-6	-46.759234
1.543675E-6	-46.775739
1.54372E-6	-46.755118
1.543765E-6	-46.761294
1.54381E-6	-46.753061
1.543855E-6	-46.786087
1.5439E-6	-46.781945
1.543945E-6	-46.775739
1.54399E-6	-46.800616
1.544035E-6	-46.840297
1.54408E-6	-46.831912
1.544125E-6	-46.844495
1.54417E-6	-46.827727
1.544215E-6	-46.842395
1.54426E-6	-46.838199
1.544305E-6	-46.831912
1.54435E-6	-46.821455
1.544395E-6	-46.78816
1.54444E-6	-46.786087
1.544485E-6	-46.794383
1.54453E-6	-46.794383
1.544575E-6	-46.802695
1.54462E-6	-46.811023
1.544665E-6	-46.79646
1.54471E-6	-46.806857
1.544755E-6	-46.834007
1.5448E-6	-46.831912
1.544845E-6	-46.852903
1.54489E-6	-46.863437
1.544935E-6	-46.865546
1.54498E-6	-46.850799
1.545025E-6	-46.865546
1.54507E-6	-46.811023
1.545115E-6	-45.359578
1.54516E-6	-37.94525
1.545205E-6	-33.194832
1.54525E-6	-30.973445
1.545295E-6	-30.376307
1.54534E-6	-30.34187
1.545385E-6	-30.303977
1.54543E-6	-30.329671
1.545475E-6	-30.649464
1.54552E-6	-32.421487
1.545565E-6	-36.857113
1.54561E-6	-43.501785
1.545655E-6	-46.515004
1.5457E-6	-46.829819
1.545745E-6	-46.88458
1.54579E-6	-46.905828
1.545835E-6	-46.920763
1.54588E-6	-46.92504
1.545925E-6	-46.91009
1.54597E-6	-46.888822
1.546015E-6	-46.863437
1.54606E-6	-46.867657
1.546105E-6	-46.882461
1.54615E-6	-46.876111
1.546195E-6	-46.873996
1.54624E-6	-46.867657
1.546285E-6	-46.865546
1.54633E-6	-46.882461
1.546375E-6	-46.92718
1.54642E-6	-46.955095
1.546465E-6	-46.957249
1.54651E-6	-46.959405
1.546555E-6	-46.961562
1.5466E-6	-46.972363
1.546645E-6	-46.972363
1.54669E-6	-46.970201
1.546735E-6	-46.96372
1.54678E-6	-46.914356
1.546825E-6	-46.942188
1.54687E-6	-46.931463
1.546915E-6	-46.922901
1.54696E-6	-46.92504
1.547005E-6	-46.918626
1.54705E-6	-46.922901
1.547095E-6	-46.942188
1.54714E-6	-46.970201
1.547185E-6	-46.987529
1.54723E-6	-47.002748
1.547275E-6	-46.987529
1.54732E-6	-47.007107
1.547365E-6	-47.009287
1.54741E-6	-47.007107
1.547455E-6	-47.026773
1.5475E-6	-47.011469
1.547545E-6	-46.994045
1.54759E-6	-46.983191
1.547635E-6	-46.955095
1.54768E-6	-46.985359
1.547725E-6	-46.972363
1.54777E-6	-46.961562
1.547815E-6	-46.96372
1.54786E-6	-46.972363
1.547905E-6	-46.998395
1.54795E-6	-47.011469
1.547995E-6	-47.026773
1.54804E-6	-47.033348
1.548085E-6	-47.057543
1.54813E-6	-47.068585
1.548175E-6	-47.061956
1.54822E-6	-47.066374
1.548265E-6	-47.064165
1.54831E-6	-47.061956
1.548355E-6	-47.031155
1.5484E-6	-47.015836
1.548445E-6	-47.007107
1.54849E-6	-47.022395
1.548535E-6	-46.996219
1.54858E-6	-47.002748
1.548625E-6	-46.9897
1.54867E-6	-47.015836
1.548715E-6	-47.022395
1.54876E-6	-47.028963
1.548805E-6	-47.064165
1.54885E-6	-47.075224
1.548895E-6	-47.081873
1.54894E-6	-47.095202
1.548985E-6	-47.092978
1.54903E-6	-47.066374
1.549075E-6	-47.070797
1.54912E-6	-47.07301
1.549165E-6	-47.061956
1.54921E-6	-47.039933
1.549255E-6	-47.020208
1.5493E-6	-47.013652
1.549345E-6	-47.015836
1.54939E-6	-47.033348
1.549435E-6	-47.037737
1.54948E-6	-47.044329
1.549525E-6	-47.048729
1.54957E-6	-47.055338
1.549615E-6	-47.075224
1.54966E-6	-47.099654
1.549705E-6	-47.095202
1.54975E-6	-47.097427
1.549795E-6	-47.088532
1.54984E-6	-47.048729
1.549885E-6	-46.88458
1.54993E-6	-42.919192
1.549975E-6	-35.026556
1.55002E-6	-31.396021
1.550065E-6	-30.085081
1.55011E-6	-29.884296
1.550155E-6	-29.913998
1.5502E-6	-29.867413
1.550245E-6	-29.922522
1.55029E-6	-30.58936
1.550335E-6	-33.237638
1.55038E-6	-39.237237
1.550425E-6	-45.508303
1.55047E-6	-46.880343
1.550515E-6	-47.057543
1.55056E-6	-47.086311
1.550605E-6	-47.084092
1.55065E-6	-47.084092
1.550695E-6	-47.084092
1.55074E-6	-47.079656
1.550785E-6	-47.050931
1.55083E-6	-47.028963
1.550875E-6	-47.020208
1.55092E-6	-47.015836
1.550965E-6	-47.022395
1.55101E-6	-47.033348
1.551055E-6	-47.007107
1.5511E-6	-47.013652
1.551145E-6	-47.037737
1.55119E-6	-47.059749
1.551235E-6	-47.079656
1.55128E-6	-47.101882
1.551325E-6	-47.088532
1.55137E-6	-47.075224
1.551415E-6	-47.077439
1.55146E-6	-47.084092
1.551505E-6	-47.079656
1.55155E-6	-47.055338
1.551595E-6	-47.026773
1.55164E-6	-46.994045
1.551685E-6	-47.002748
1.55173E-6	-46.991872
1.551775E-6	-47.024583
1.55182E-6	-47.009287
1.551865E-6	-46.9897
1.55191E-6	-46.996219
1.551955E-6	-47.020208
1.552E-6	-47.061956
1.552045E-6	-47.086311
1.55209E-6	-47.07301
1.552135E-6	-47.053134
1.55218E-6	-47.048729
1.552225E-6	-47.070797
1.55227E-6	-47.066374
1.552315E-6	-47.053134
1.55236E-6	-47.035542
1.552405E-6	-46.987529
1.55245E-6	-46.965879
1.552495E-6	-46.968039
1.55254E-6	-46.994045
1.552585E-6	-46.987529
1.55263E-6	-46.981023
1.552675E-6	-46.978856
1.55272E-6	-46.981023
1.552765E-6	-47.022395
1.55281E-6	-47.039933
1.552855E-6	-47.055338
1.5529E-6	-47.053134
1.552945E-6	-47.033348
1.55299E-6	-47.037737
1.553035E-6	-47.044329
1.55308E-6	-47.050931
1.553125E-6	-47.039933
1.55317E-6	-46.983191
1.553215E-6	-46.965879
1.55326E-6	-46.970201
1.553305E-6	-46.976691
1.55335E-6	-46.96372
1.553395E-6	-46.957249
1.55344E-6	-46.959405
1.553485E-6	-46.96372
1.55353E-6	-46.983191
1.553575E-6	-47.007107
1.55362E-6	-47.026773
1.553665E-6	-47.024583
1.55371E-6	-47.024583
1.553755E-6	-47.018021
1.5538E-6	-47.033348
1.553845E-6	-47.037737
1.55389E-6	-47.031155
1.553935E-6	-47.002748
1.55398E-6	-46.976691
1.554025E-6	-46.952941
1.55407E-6	-46.952941
1.554115E-6	-46.96372
1.55416E-6	-46.940041
1.554205E-6	-46.937895
1.55425E-6	-46.92504
1.554295E-6	-46.931463
1.55434E-6	-46.968039
1.554385E-6	-46.994045
1.55443E-6	-47.013652
1.554475E-6	-47.011469
1.55452E-6	-47.013652
1.554565E-6	-47.007107
1.55461E-6	-47.037737
1.554655E-6	-47.024583
1.5547E-6	-47.026773
1.554745E-6	-46.998395
1.55479E-6	-46.974526
1.554835E-6	-46.952941
1.55488E-6	-46.937895
1.554925E-6	-46.92932
1.55497E-6	-46.903698
1.555015E-6	-46.914356
1.55506E-6	-46.92504
1.555105E-6	-46.942188
1.55515E-6	-46.946486
1.555195E-6	-46.976691
1.55524E-6	-46.985359
1.555285E-6	-46.998395
1.55533E-6	-47.004927
1.555375E-6	-47.007107
1.55542E-6	-46.994045
1.555465E-6	-46.994045
1.55551E-6	-46.996219
1.555555E-6	-46.965879
1.5556E-6	-46.952941
1.555645E-6	-46.920763
1.55569E-6	-46.92932
1.555735E-6	-46.918626
1.55578E-6	-46.92504
1.555825E-6	-46.914356
1.55587E-6	-46.91009
1.555915E-6	-46.933606
1.55596E-6	-46.92718
1.556005E-6	-46.955095
1.55605E-6	-46.998395
1.556095E-6	-47.004927
1.55614E-6	-47.015836
1.556185E-6	-47.009287
1.55623E-6	-47.015836
1.556275E-6	-47.007107
1.55632E-6	-47.007107
1.556365E-6	-46.987529
1.55641E-6	-46.976691
1.556455E-6	-46.933606
1.5565E-6	-46.942188
1.556545E-6	-46.91009
1.55659E-6	-46.918626
1.556635E-6	-46.937895
1.55668E-6	-46.931463
1.556725E-6	-46.933606
1.55677E-6	-46.948637
1.556815E-6	-46.974526
1.55686E-6	-46.998395
1.556905E-6	-47.031155
1.55695E-6	-47.039933
1.556995E-6	-47.031155
1.55704E-6	-47.031155
1.557085E-6	-47.015836
1.55713E-6	-47.028963
1.557175E-6	-47.028963
1.55722E-6	-47.004927
1.557265E-6	-46.970201
1.55731E-6	-46.955095
1.557355E-6	-46.940041
1.5574E-6	-46.946486
1.557445E-6	-46.961562
1.55749E-6	-46.970201
1.557535E-6	-46.965879
1.55758E-6	-46.970201
1.557625E-6	-47.028963
1.55767E-6	-47.059749
1.557715E-6	-47.081873
1.55776E-6	-47.070797
1.557805E-6	-47.081873
1.55785E-6	-47.077439
1.557895E-6	-47.075224
1.55794E-6	-47.081873
1.557985E-6	-47.084092
1.55803E-6	-47.037737
1.558075E-6	-47.015836
1.55812E-6	-46.991872
1.558165E-6	-47.002748
1.55821E-6	-47.018021
1.558255E-6	-47.018021
1.5583E-6	-47.018021
1.558345E-6	-47.026773
1.55839E-6	-47.039933
1.558435E-6	-47.084092
1.55848E-6	-47.128704
1.558525E-6	-47.144427
1.55857E-6	-47.146678
1.558615E-6	-47.146678
1.55866E-6	-47.137681
1.558705E-6	-47.146678
1.55875E-6	-47.151183
1.558795E-6	-47.155693
1.55884E-6	-47.113037
1.558885E-6	-47.092978
1.55893E-6	-47.084092
1.558975E-6	-47.086311
1.55902E-6	-47.113037
1.559065E-6	-47.113037
1.55911E-6	-47.121983
1.559155E-6	-47.10634
1.5592E-6	-47.142177
1.559245E-6	-47.20105
1.55929E-6	-47.235382
1.559335E-6	-47.249191
1.55938E-6	-47.23768
1.559425E-6	-47.242281
1.55947E-6	-47.242281
1.559515E-6	-47.260732
1.55956E-6	-47.272304
1.559605E-6	-47.265357
1.55965E-6	-47.233085
1.559695E-6	-47.219327
1.55974E-6	-47.21475
1.559785E-6	-47.223908
1.55983E-6	-47.230789
1.559875E-6	-47.244583
1.55992E-6	-47.23998
1.559965E-6	-47.251497
1.56001E-6	-47.279262
1.560055E-6	-47.328283
1.5601E-6	-47.368375
1.560145E-6	-47.377863
1.56019E-6	-47.377863
1.560235E-6	-47.389752
1.56028E-6	-47.411234
1.560325E-6	-47.423214
1.56037E-6	-47.423214
1.560415E-6	-47.408842
1.56046E-6	-47.368375
1.560505E-6	-47.356545
1.56055E-6	-47.356545
1.560595E-6	-47.368375
1.56064E-6	-47.377863
1.560685E-6	-47.377863
1.56073E-6	-47.377863
1.560775E-6	-47.389752
1.56082E-6	-47.437635
1.560865E-6	-47.478754
1.56091E-6	-47.517814
1.560955E-6	-47.527635
1.561E-6	-47.510464
1.561045E-6	-47.530093
1.56109E-6	-47.554755
1.561135E-6	-47.539941
1.56118E-6	-47.56962
1.561225E-6	-47.530093
1.56127E-6	-47.515363
1.561315E-6	-47.512913
1.56136E-6	-47.522722
1.561405E-6	-47.544873
1.56145E-6	-47.517814
1.561495E-6	-47.549811
1.56154E-6	-47.544873
1.561585E-6	-47.562181
1.56163E-6	-47.604503
1.561675E-6	-47.642191
1.56172E-6	-47.654827
1.561765E-6	-47.657359
1.56181E-6	-47.68021
1.561855E-6	-47.698066
1.5619E-6	-47.721133
1.561945E-6	-47.734001
1.56199E-6	-47.723704
1.562035E-6	-47.708303
1.56208E-6	-47.677665
1.562125E-6	-47.677665
1.56217E-6	-47.685304
1.562215E-6	-47.700623
1.56226E-6	-47.692957
1.562305E-6	-47.700623
1.56235E-6	-47.703182
1.562395E-6	-47.708303
1.56244E-6	-47.75208
1.562485E-6	-47.772835
1.56253E-6	-47.804155
1.562575E-6	-47.817271
1.56262E-6	-47.835702
1.562665E-6	-47.85421
1.56271E-6	-47.872798
1.562755E-6	-47.867479
1.5628E-6	-47.859513
1.562845E-6	-47.872798
1.56289E-6	-47.85421
1.562935E-6	-47.838341
1.56298E-6	-47.843624
1.563025E-6	-47.843624
1.56307E-6	-47.846268
1.563115E-6	-47.851562
1.56316E-6	-47.856861
1.563205E-6	-47.888795
1.56325E-6	-47.907532
1.563295E-6	-47.920965
1.56334E-6	-47.977842
1.563385E-6	-47.988761
1.56343E-6	-48.005191
1.563475E-6	-48.024438
1.56352E-6	-48.024438
1.563565E-6	-48.029953
1.56361E-6	-48.01893
1.563655E-6	-48.038238
1.5637E-6	-48.029953
1.563745E-6	-48.016179
1.56379E-6	-48.005191
1.563835E-6	-48.002448
1.56388E-6	-48.007935
1.563925E-6	-48.029953
1.56397E-6	-48.038238
1.564015E-6	-48.071539
1.56406E-6	-48.082696
1.564105E-6	-48.093882
1.56415E-6	-48.124793
1.564195E-6	-48.150248
1.56424E-6	-48.184422
1.564285E-6	-48.184422
1.56433E-6	-48.184422
1.564375E-6	-48.173001
1.56442E-6	-48.201611
1.564465E-6	-48.207355
1.56451E-6	-48.210231
1.564555E-6	-48.187282
1.5646E-6	-48.175853
1.564645E-6	-48.175853
1.56469E-6	-48.187282
1.564735E-6	-48.224635
1.56478E-6	-48.218867
1.564825E-6	-48.233301
1.56487E-6	-48.244882
1.564915E-6	-48.27689
1.56496E-6	-48.31208
1.565005E-6	-48.33866
1.56505E-6	-48.356471
1.565095E-6	-48.365404
1.56514E-6	-48.37137
1.565185E-6	-48.383326
1.56523E-6	-48.392314
1.565275E-6	-48.392314
1.56532E-6	-48.410347
1.565365E-6	-48.38632
1.56541E-6	-48.38632
1.565455E-6	-48.380334
1.5655E-6	-48.392314
1.565545E-6	-48.410347
1.56559E-6	-48.422411
1.565635E-6	-48.443604
1.56568E-6	-48.443604
1.565725E-6	-48.461851
1.56577E-6	-48.517059
1.565815E-6	-48.544928
1.56586E-6	-48.551146
1.565905E-6	-48.557372
1.56595E-6	-48.572978
1.565995E-6	-48.569852
1.56604E-6	-48.582368
1.566085E-6	-48.588639
1.56613E-6	-48.601209
1.566175E-6	-48.582368
1.56622E-6	-48.569852
1.566265E-6	-48.566729
1.56631E-6	-48.591778
1.566355E-6	-48.59492
1.5664E-6	-48.620133
1.566445E-6	-48.604357
1.56649E-6	-48.635966
1.566535E-6	-48.642315
1.56658E-6	-48.680607
1.566625E-6	-48.709549
1.56667E-6	-48.728952
1.566715E-6	-48.741935
1.56676E-6	-48.735439
1.566805E-6	-48.728952
1.56685E-6	-48.754958
1.566895E-6	-48.790972
1.56694E-6	-48.787685
1.566985E-6	-48.771291
1.56703E-6	-48.758219
1.567075E-6	-48.774565
1.56712E-6	-48.804142
1.567165E-6	-48.827287
1.56721E-6	-48.840568
1.567255E-6	-48.85389
1.5673E-6	-48.863908
1.567345E-6	-48.880657
1.56739E-6	-48.934691
1.567435E-6	-48.982529
1.56748E-6	-48.985966
1.567525E-6	-49.017025
1.56757E-6	-49.0309
1.567615E-6	-49.08333
1.56766E-6	-49.122186
1.567705E-6	-49.147094
1.56775E-6	-49.179331
1.567795E-6	-49.182927
1.56784E-6	-49.208188
1.567885E-6	-49.262816
1.56793E-6	-49.314431
1.567975E-6	-49.37418
1.56802E-6	-49.427144
1.568065E-6	-49.492337
1.56811E-6	-49.558524
1.568155E-6	-49.637705
1.5682E-6	-49.714287
1.568245E-6	-49.812995
1.56829E-6	-49.905491
1.568335E-6	-49.97402
1.56838E-6	-50.082867
1.568425E-6	-50.162835
1.56847E-6	-50.263642
1.568515E-6	-50.362122
1.56856E-6	-50.46192
1.568605E-6	-50.559617
1.56865E-6	-50.670192
1.568695E-6	-50.806604
1.56874E-6	-50.894823
1.568785E-6	-51.038597
1.56883E-6	-51.124952
1.568875E-6	-51.270284
1.56892E-6	-51.400815
1.568965E-6	-51.556471
1.56901E-6	-51.696038
1.569055E-6	-51.810487
1.5691E-6	-51.951793
1.569145E-6	-52.073982
1.56919E-6	-52.207644
1.569235E-6	-52.353756
1.56928E-6	-52.453459
1.569325E-6	-52.591638
1.56937E-6	-52.714839
1.569415E-6	-52.814983
1.56946E-6	-52.936236
1.569505E-6	-53.034689
1.56955E-6	-53.177646
1.569595E-6	-53.283644
1.56964E-6	-53.361107
1.569685E-6	-53.475603
1.56973E-6	-53.606131
1.569775E-6	-53.718155
1.56982E-6	-53.815335
1.569865E-6	-53.912601
1.56991E-6	-54.005536
1.569955E-6	-54.091582
1.57E-6	-54.186193
