Wavelength (nm)	Power (dBm)
1.525E-6	-71.798642
1.525045E-6	-71.7993
1.52509E-6	-72.308443
1.525135E-6	-74.380642
1.52518E-6	-79.200955
1.525225E-6	-83.02422
1.52527E-6	-84.332091
1.525315E-6	-86.265363
1.52536E-6	-85.820304
1.525405E-6	-85.26659
1.52545E-6	-83.49304
1.525495E-6	-76.413039
1.52554E-6	-72.972249
1.525585E-6	-71.034738
1.52563E-6	-70.605806
1.525675E-6	-70.51196
1.52572E-6	-70.139004
1.525765E-6	-70.049355
1.52581E-6	-69.913998
1.525855E-6	-70.275657
1.5259E-6	-72.059304
1.525945E-6	-75.684754
1.52599E-6	-80.580912
1.526035E-6	-84.131877
1.52608E-6	-86.064248
1.526125E-6	-88.06319
1.52617E-6	-85.956795
1.526215E-6	-83.695721
1.52626E-6	-76.677636
1.526305E-6	-72.189631
1.52635E-6	-69.948195
1.526395E-6	-69.147094
1.52644E-6	-68.958544
1.526485E-6	-68.87395
1.52653E-6	-68.863908
1.526575E-6	-68.758219
1.52662E-6	-68.968807
1.526665E-6	-70.121104
1.52671E-6	-73.500813
1.526755E-6	-78.610661
1.5268E-6	-82.468001
1.526845E-6	-86.095948
1.52689E-6	-84.601714
1.526935E-6	-86.050233
1.52698E-6	-83.59618
1.527025E-6	-78.215987
1.52707E-6	-71.744441
1.527115E-6	-69.122186
1.52716E-6	-68.005191
1.527205E-6	-67.825161
1.52725E-6	-67.68021
1.527295E-6	-67.597004
1.52734E-6	-67.56962
1.527385E-6	-67.74174
1.52743E-6	-68.632794
1.527475E-6	-71.082396
1.52752E-6	-76.352614
1.527565E-6	-80.241548
1.52761E-6	-83.973975
1.527655E-6	-85.506759
1.5277E-6	-83.486251
1.527745E-6	-86.40544
1.52779E-6	-79.685915
1.527835E-6	-72.124687
1.52788E-6	-68.651856
1.527925E-6	-67.205612
1.52797E-6	-66.871882
1.528015E-6	-66.825635
1.52806E-6	-66.78816
1.528105E-6	-66.613443
1.52815E-6	-66.732546
1.528195E-6	-67.396901
1.52824E-6	-69.645703
1.528285E-6	-73.390397
1.52833E-6	-79.738755
1.528375E-6	-83.65926
1.52842E-6	-86.088884
1.528465E-6	-84.744369
1.52851E-6	-83.301255
1.528555E-6	-81.940236
1.5286E-6	-73.018124
1.528645E-6	-68.71924
1.52869E-6	-66.667543
1.528735E-6	-66.230582
1.52878E-6	-66.101254
1.528825E-6	-66.08712
1.52887E-6	-65.975667
1.528915E-6	-66.025815
1.52896E-6	-66.369524
1.529005E-6	-67.915586
1.52905E-6	-71.252284
1.529095E-6	-76.861328
1.52914E-6	-81.966112
1.529185E-6	-85.807053
1.52923E-6	-84.028535
1.529275E-6	-84.877159
1.52932E-6	-84.069356
1.529365E-6	-74.621809
1.52941E-6	-69.30702
1.529455E-6	-66.528652
1.5295E-6	-65.805399
1.529545E-6	-65.595632
1.52959E-6	-65.568935
1.529635E-6	-65.488278
1.52968E-6	-65.472938
1.529725E-6	-65.684754
1.52977E-6	-66.689778
1.529815E-6	-69.722428
1.52986E-6	-74.385408
1.529905E-6	-78.948306
1.52995E-6	-83.858413
1.529995E-6	-84.72499
1.53004E-6	-83.91688
1.530085E-6	-82.812493
1.53013E-6	-78.374356
1.530175E-6	-70.291419
1.53022E-6	-66.767479
1.530265E-6	-65.52842
1.53031E-6	-65.181276
1.530355E-6	-65.154155
1.5304E-6	-65.131446
1.530445E-6	-65.094797
1.53049E-6	-65.230235
1.530535E-6	-65.880438
1.53058E-6	-67.980569
1.530625E-6	-71.952474
1.53067E-6	-77.956087
1.530715E-6	-82.53288
1.53076E-6	-84.31329
1.530805E-6	-87.249191
1.53085E-6	-85.029321
1.530895E-6	-80.775341
1.53094E-6	-71.981848
1.530985E-6	-67.375489
1.53103E-6	-65.508303
1.531075E-6	-65.079384
1.53112E-6	-65.040396
1.531165E-6	-64.951215
1.53121E-6	-64.981195
1.531255E-6	-65.011383
1.5313E-6	-65.319482
1.531345E-6	-66.78816
1.53139E-6	-70.091286
1.531435E-6	-76.06074
1.53148E-6	-80.805035
1.531525E-6	-84.041732
1.53157E-6	-85.828606
1.531615E-6	-84.17823
1.53166E-6	-82.764622
1.531705E-6	-74.804345
1.53175E-6	-68.948306
1.531795E-6	-65.99462
1.53184E-6	-65.148467
1.531885E-6	-64.997635
1.53193E-6	-65.037625
1.531975E-6	-64.952574
1.53202E-6	-65.015516
1.532065E-6	-65.15131
1.53211E-6	-66.167233
1.532155E-6	-68.817353
1.5322E-6	-73.35452
1.532245E-6	-79.694003
1.53229E-6	-82.278984
1.532335E-6	-85.003129
1.53238E-6	-83.644157
1.532425E-6	-83.502758
1.53247E-6	-79.086848
1.532515E-6	-70.958798
1.53256E-6	-66.850799
1.532605E-6	-65.512937
1.53265E-6	-65.131446
1.532695E-6	-65.09199
1.53274E-6	-65.037625
1.532785E-6	-65.124374
1.53283E-6	-65.224447
1.532875E-6	-65.744658
1.53292E-6	-67.6675
1.532965E-6	-71.375704
1.53301E-6	-77.703182
1.533055E-6	-81.657065
1.5331E-6	-83.951262
1.533145E-6	-85.992894
1.53319E-6	-83.992449
1.533235E-6	-82.716462
1.53328E-6	-73.594192
1.533325E-6	-68.817353
1.53337E-6	-66.373291
1.533415E-6	-65.606673
1.53346E-6	-65.543958
1.533505E-6	-65.583049
1.53355E-6	-65.608253
1.533595E-6	-65.694412
1.53364E-6	-65.949953
1.533685E-6	-67.189666
1.53373E-6	-69.734667
1.533775E-6	-75.212892
1.53382E-6	-79.956786
1.533865E-6	-83.866868
1.53391E-6	-84.565528
1.533955E-6	-83.560541
1.534E-6	-83.833145
1.534045E-6	-78.931295
1.53409E-6	-71.387046
1.534135E-6	-67.723704
1.53418E-6	-66.462761
1.534225E-6	-66.212388
1.53427E-6	-66.219657
1.534315E-6	-66.22876
1.53436E-6	-66.341378
1.534405E-6	-66.437829
1.53445E-6	-67.015836
1.534495E-6	-69.182927
1.53454E-6	-72.775306
1.534585E-6	-78.738686
1.53463E-6	-82.340336
1.534675E-6	-83.950184
1.53472E-6	-85.045944
1.534765E-6	-85.171264
1.53481E-6	-82.158108
1.534855E-6	-74.365189
1.5349E-6	-69.694003
1.534945E-6	-67.532553
1.53499E-6	-66.950788
1.535035E-6	-66.912222
1.53508E-6	-66.961562
1.535125E-6	-66.983191
1.53517E-6	-67.044329
1.535215E-6	-67.269987
1.53526E-6	-68.651856
1.535305E-6	-71.172478
1.53535E-6	-77.070797
1.535395E-6	-81.154312
1.53544E-6	-84.294571
1.535485E-6	-84.450265
1.53553E-6	-87.542406
1.535575E-6	-84.898573
1.53562E-6	-78.90759
1.535665E-6	-72.115488
1.53571E-6	-69.08333
1.535755E-6	-67.843624
1.5358E-6	-67.574586
1.535845E-6	-67.629592
1.53589E-6	-67.664962
1.535935E-6	-67.614521
1.53598E-6	-67.780644
1.536025E-6	-68.44057
1.53607E-6	-70.380097
1.536115E-6	-74.624327
1.53616E-6	-79.722428
1.536205E-6	-83.926522
1.53625E-6	-84.214754
1.536295E-6	-84.207882
1.53634E-6	-82.571178
1.536385E-6	-81.860189
1.53643E-6	-75.16698
1.536475E-6	-70.727837
1.53652E-6	-68.693447
1.536565E-6	-68.215987
1.53661E-6	-68.130437
1.536655E-6	-68.136088
1.5367E-6	-68.198741
1.536745E-6	-68.236193
1.53679E-6	-68.474059
1.536835E-6	-69.746941
1.53688E-6	-72.727028
1.536925E-6	-77.996968
1.53697E-6	-81.88224
1.537015E-6	-83.895528
1.53706E-6	-85.601938
1.537105E-6	-85.176982
1.53715E-6	-85.179844
1.537195E-6	-79.767475
1.53724E-6	-73.03731
1.537285E-6	-69.93534
1.53733E-6	-68.732194
1.537375E-6	-68.520147
1.53742E-6	-68.471004
1.537465E-6	-68.474059
1.53751E-6	-68.507809
1.537555E-6	-68.671002
1.5376E-6	-69.175737
1.537645E-6	-71.165657
1.53769E-6	-75.275361
1.537735E-6	-79.665762
1.53778E-6	-84.527177
1.537825E-6	-84.639468
1.53787E-6	-85.044557
1.537915E-6	-83.20663
1.53796E-6	-84.043936
1.538005E-6	-76.081831
1.53805E-6	-71.567672
1.538095E-6	-69.419538
1.53814E-6	-68.833923
1.538185E-6	-68.642315
1.53823E-6	-68.642315
1.538275E-6	-68.623295
1.53832E-6	-68.667805
1.538365E-6	-68.904215
1.53841E-6	-70.037511
1.538455E-6	-73.090954
1.5385E-6	-78.032713
1.538545E-6	-81.281353
1.53859E-6	-84.098272
1.538635E-6	-85.421181
1.53868E-6	-84.22853
1.538725E-6	-83.565473
1.53877E-6	-80.25903
1.538815E-6	-73.418932
1.53886E-6	-70.322181
1.538905E-6	-69.093893
1.53895E-6	-68.706324
1.538995E-6	-68.582368
1.53904E-6	-68.560489
1.539085E-6	-68.632794
1.53913E-6	-68.59492
1.539175E-6	-69.122186
1.53922E-6	-71.016588
1.539265E-6	-74.779472
1.53931E-6	-79.480761
1.539355E-6	-83.587242
1.5394E-6	-84.174821
1.539445E-6	-86.625407
1.53949E-6	-84.064924
1.539535E-6	-83.065369
1.53958E-6	-76.420652
1.539625E-6	-71.605848
1.53967E-6	-69.347939
1.539715E-6	-68.604357
1.53976E-6	-68.404328
1.539805E-6	-68.335699
1.53985E-6	-68.329782
1.539895E-6	-68.389316
1.53994E-6	-68.607508
1.539985E-6	-69.578184
1.54003E-6	-72.432118
1.540075E-6	-77.872798
1.54012E-6	-81.835598
1.540165E-6	-84.505063
1.54021E-6	-84.475752
1.540255E-6	-85.233133
1.5403E-6	-83.417023
1.540345E-6	-81.298303
1.54039E-6	-73.73865
1.540435E-6	-70.053749
1.54048E-6	-68.582368
1.540525E-6	-68.233301
1.54057E-6	-68.175853
1.540615E-6	-68.153086
1.54066E-6	-68.167302
1.540705E-6	-68.155925
1.54075E-6	-68.517059
1.540795E-6	-70.130045
1.54084E-6	-73.825803
1.540885E-6	-78.541823
1.54093E-6	-82.187474
1.540975E-6	-83.701828
1.54102E-6	-83.885954
1.541065E-6	-83.91367
1.54111E-6	-84.500164
1.541155E-6	-76.697892
1.5412E-6	-71.636759
1.541245E-6	-69.108016
1.54129E-6	-68.096683
1.541335E-6	-67.89414
1.54138E-6	-67.880789
1.541425E-6	-67.840982
1.54147E-6	-67.804155
1.541515E-6	-68.013429
1.54156E-6	-68.989406
1.541605E-6	-71.144692
1.54165E-6	-75.514483
1.541695E-6	-80.518316
1.54174E-6	-82.986047
1.541785E-6	-83.432312
1.54183E-6	-84.385408
1.541875E-6	-86.131445
1.54192E-6	-81.66152
1.541965E-6	-74.198737
1.54201E-6	-70.127808
1.542055E-6	-68.341624
1.5421E-6	-67.746907
1.542145E-6	-67.723704
1.54219E-6	-67.700623
1.542235E-6	-67.672579
1.54228E-6	-67.672579
1.542325E-6	-68.032713
1.54237E-6	-69.3968
1.542415E-6	-72.361978
1.54246E-6	-77.880789
1.542505E-6	-82.003838
1.54255E-6	-83.28642
1.542595E-6	-83.177646
1.54264E-6	-84.185055
1.542685E-6	-85.332806
1.54273E-6	-79.04482
1.542775E-6	-72.136746
1.54282E-6	-68.992849
1.542865E-6	-67.710866
1.54291E-6	-67.574586
1.542955E-6	-67.525177
1.543E-6	-67.456937
1.543045E-6	-67.508016
1.54309E-6	-67.478754
1.543135E-6	-68.178708
1.54318E-6	-69.796387
1.543225E-6	-73.931889
1.54327E-6	-78.53252
1.543315E-6	-83.202088
1.54336E-6	-83.393242
1.543405E-6	-84.855851
1.54345E-6	-84.545692
1.543495E-6	-82.402566
1.54354E-6	-75.731635
1.543585E-6	-70.645935
1.54363E-6	-68.326827
1.543675E-6	-67.527635
1.54372E-6	-67.330631
1.543765E-6	-67.404061
1.54381E-6	-67.344747
1.543855E-6	-67.311881
1.5439E-6	-67.418418
1.543945E-6	-68.50473
1.54399E-6	-70.771708
1.544035E-6	-75.825283
1.54408E-6	-80.115302
1.544125E-6	-84.886515
1.54417E-6	-83.691655
1.544215E-6	-85.073793
1.54426E-6	-85.029321
1.544305E-6	-81.518725
1.54435E-6	-73.351701
1.544395E-6	-69.492337
1.54444E-6	-67.759852
1.544485E-6	-67.366007
1.54453E-6	-67.249191
1.544575E-6	-67.217038
1.54462E-6	-67.221617
1.544665E-6	-67.23998
1.54471E-6	-67.564659
1.544755E-6	-69.154237
1.5448E-6	-72.034257
1.544845E-6	-77.389752
1.54489E-6	-80.267798
1.544935E-6	-81.777011
1.54498E-6	-79.613798
1.545025E-6	-74.371126
1.54507E-6	-66.74074
1.545115E-6	-53.371478
1.54516E-6	-39.677843
1.545205E-6	-34.787311
1.54525E-6	-32.71971
1.545295E-6	-32.222833
1.54534E-6	-32.142432
1.545385E-6	-32.118316
1.54543E-6	-32.128939
1.545475E-6	-32.534436
1.54552E-6	-34.563044
1.545565E-6	-39.593977
1.54561E-6	-48.965384
1.545655E-6	-60.170055
1.5457E-6	-66.651443
1.545745E-6	-72.421487
1.54579E-6	-77.230789
1.545835E-6	-79.076303
1.54588E-6	-80.884163
1.545925E-6	-75.800443
1.54597E-6	-70.626828
1.546015E-6	-68.133261
1.54606E-6	-67.2262
1.546105E-6	-67.166988
1.54615E-6	-67.151183
1.546195E-6	-67.099654
1.54624E-6	-67.146678
1.546285E-6	-67.286231
1.54633E-6	-68.138916
1.546375E-6	-70.331077
1.54642E-6	-74.949858
1.546465E-6	-79.314431
1.54651E-6	-84.343883
1.546555E-6	-84.48672
1.5466E-6	-83.522259
1.546645E-6	-83.87534
1.54669E-6	-81.404414
1.546735E-6	-74.045038
1.54678E-6	-69.710223
1.546825E-6	-67.619539
1.54687E-6	-67.235382
1.546915E-6	-67.189666
1.54696E-6	-67.130946
1.547005E-6	-67.079656
1.54705E-6	-67.081873
1.547095E-6	-67.347104
1.54714E-6	-68.709549
1.547185E-6	-71.412223
1.54723E-6	-76.392173
1.547275E-6	-80.460954
1.54732E-6	-83.289198
1.547365E-6	-84.099388
1.54741E-6	-85.048721
1.547455E-6	-83.84892
1.5475E-6	-80.117533
1.547545E-6	-72.25483
1.54759E-6	-68.887375
1.547635E-6	-67.399286
1.54768E-6	-67.115272
1.547725E-6	-67.066374
1.54777E-6	-67.095202
1.547815E-6	-67.090754
1.54786E-6	-67.135435
1.547905E-6	-67.579558
1.54795E-6	-69.229957
1.547995E-6	-72.466468
1.54804E-6	-78.377344
1.548085E-6	-83.398938
1.54813E-6	-84.616777
1.548175E-6	-84.523483
1.54822E-6	-85.540846
1.548265E-6	-85.312097
1.54831E-6	-76.677636
1.548355E-6	-71.479472
1.5484E-6	-68.474059
1.548445E-6	-67.321246
1.54849E-6	-67.035542
1.548535E-6	-67.110804
1.54858E-6	-67.077439
1.548625E-6	-66.985359
1.54867E-6	-67.137681
1.548715E-6	-67.71343
1.54876E-6	-69.645703
1.548805E-6	-73.382819
1.54885E-6	-79.28118
1.548895E-6	-82.468001
1.54894E-6	-83.183066
1.548985E-6	-85.061239
1.54903E-6	-85.26659
1.549075E-6	-84.7379
1.54912E-6	-75.845258
1.549165E-6	-70.526643
1.54921E-6	-68.096683
1.549255E-6	-67.276942
1.5493E-6	-67.101882
1.549345E-6	-67.024583
1.54939E-6	-67.084092
1.549435E-6	-67.037737
1.54948E-6	-67.191941
1.549525E-6	-67.991495
1.54957E-6	-69.995659
1.549615E-6	-74.446637
1.54966E-6	-79.714287
1.549705E-6	-80.676785
1.54975E-6	-80.536951
1.549795E-6	-78.236193
1.54984E-6	-70.872998
1.549885E-6	-61.994204
1.54993E-6	-46.188849
1.549975E-6	-36.609463
1.55002E-6	-33.326405
1.550065E-6	-32.227182
1.55011E-6	-32.034257
1.550155E-6	-31.995579
1.5502E-6	-31.994891
1.550245E-6	-32.055817
1.55029E-6	-32.851675
1.550335E-6	-35.77082
1.55038E-6	-42.097852
1.550425E-6	-54.538276
1.55047E-6	-61.876215
1.550515E-6	-69.292235
1.55056E-6	-74.587953
1.550605E-6	-78.513973
1.55065E-6	-79.689957
1.550695E-6	-79.122186
1.55074E-6	-73.243133
1.550785E-6	-69.229957
1.55083E-6	-67.473897
1.550875E-6	-67.035542
1.55092E-6	-66.890944
1.550965E-6	-66.918626
1.55101E-6	-66.933606
1.551055E-6	-66.742791
1.5511E-6	-67.267672
1.551145E-6	-68.598063
1.55119E-6	-71.319436
1.551235E-6	-76.655462
1.55128E-6	-80.696114
1.551325E-6	-83.245883
1.55137E-6	-83.138108
1.551415E-6	-84.614263
1.55146E-6	-84.597957
1.551505E-6	-79.909743
1.55155E-6	-72.275316
1.551595E-6	-68.661419
1.55164E-6	-67.162466
1.551685E-6	-66.882461
1.55173E-6	-66.753061
1.551775E-6	-66.821455
1.55182E-6	-66.78816
1.551865E-6	-66.844495
1.55191E-6	-67.166988
1.551955E-6	-68.722475
1.552E-6	-71.7829
1.552045E-6	-77.274622
1.55209E-6	-81.682582
1.552135E-6	-84.025242
1.55218E-6	-84.327383
1.552225E-6	-84.403327
1.55227E-6	-83.49984
1.552315E-6	-78.323873
1.55236E-6	-71.450263
1.552405E-6	-68.309136
1.55245E-6	-67.075224
1.552495E-6	-66.647427
1.55254E-6	-66.757175
1.552585E-6	-66.714166
1.55263E-6	-66.74074
1.552675E-6	-66.744843
1.55272E-6	-67.258422
1.552765E-6	-69.132843
1.55281E-6	-72.784367
1.552855E-6	-78.467951
1.5529E-6	-82.34257
1.552945E-6	-84.910665
1.55299E-6	-83.125602
1.553035E-6	-84.886515
1.55308E-6	-84.699284
1.553125E-6	-76.392173
1.55317E-6	-70.537443
1.553215E-6	-67.710866
1.55326E-6	-66.85922
1.553305E-6	-66.675615
1.55335E-6	-66.595559
1.553395E-6	-66.593576
1.55344E-6	-66.605486
1.553485E-6	-66.673596
1.55353E-6	-67.283907
1.553575E-6	-69.461536
1.55362E-6	-73.114022
1.553665E-6	-78.696662
1.55371E-6	-82.173841
1.553755E-6	-84.009908
1.5538E-6	-85.480601
1.553845E-6	-83.538905
1.55389E-6	-83.456309
1.553935E-6	-75.421181
1.55398E-6	-70.08331
1.554025E-6	-67.399286
1.55407E-6	-66.629403
1.554115E-6	-66.509168
1.55416E-6	-66.542343
1.554205E-6	-66.505282
1.55425E-6	-66.409238
1.554295E-6	-66.655462
1.55434E-6	-67.290884
1.554385E-6	-69.694003
1.55443E-6	-73.595186
1.554475E-6	-78.392314
1.55452E-6	-83.098926
1.554565E-6	-85.929492
1.55461E-6	-85.318004
1.554655E-6	-84.289903
1.5547E-6	-81.812464
1.554745E-6	-74.575481
1.55479E-6	-69.710223
1.554835E-6	-67.344747
1.55488E-6	-66.311555
1.554925E-6	-66.36388
1.55497E-6	-66.382722
1.555015E-6	-66.298572
1.55506E-6	-66.365761
1.555105E-6	-66.470461
1.55515E-6	-67.366007
1.555195E-6	-69.570309
1.55524E-6	-74.183916
1.555285E-6	-78.8706
1.55533E-6	-82.740884
1.555375E-6	-84.710833
1.55542E-6	-85.029321
1.555465E-6	-85.407583
1.55551E-6	-82.876029
1.555555E-6	-73.928668
1.5556E-6	-69.248181
1.555645E-6	-66.959405
1.55569E-6	-66.468535
1.555735E-6	-66.346993
1.55578E-6	-66.263525
1.555825E-6	-66.276404
1.55587E-6	-66.346993
1.555915E-6	-66.470461
1.55596E-6	-67.401673
1.556005E-6	-69.714287
1.55605E-6	-74.339162
1.556095E-6	-78.979095
1.55614E-6	-82.676062
1.556185E-6	-86.055483
1.55623E-6	-86.821455
1.556275E-6	-83.694704
1.55632E-6	-81.350738
1.556365E-6	-73.610118
1.55641E-6	-69.136402
1.556455E-6	-66.893067
1.5565E-6	-66.35074
1.556545E-6	-66.258017
1.55659E-6	-66.26904
1.556635E-6	-66.219657
1.55668E-6	-66.259853
1.556725E-6	-66.434006
1.55677E-6	-67.401673
1.556815E-6	-69.788107
1.55686E-6	-74.623068
1.556905E-6	-78.955129
1.55695E-6	-84.17255
1.556995E-6	-86.076548
1.55704E-6	-83.610118
1.557085E-6	-86.751005
1.55713E-6	-82.00246
1.557175E-6	-73.459198
1.55722E-6	-68.910969
1.557265E-6	-66.781945
1.55731E-6	-66.3865
1.557355E-6	-66.300424
1.5574E-6	-66.302277
1.557445E-6	-66.274562
1.55749E-6	-66.294869
1.557535E-6	-66.455074
1.55758E-6	-67.498241
1.557625E-6	-69.931063
1.55767E-6	-74.792545
1.557715E-6	-79.154237
1.55776E-6	-83.924378
1.557805E-6	-85.497509
1.55785E-6	-82.983457
1.557895E-6	-83.367704
1.55794E-6	-81.602078
1.557985E-6	-73.450538
1.55803E-6	-69.051796
1.558075E-6	-66.897316
1.55812E-6	-66.38839
1.558165E-6	-66.407338
1.55821E-6	-66.378947
1.558255E-6	-66.348866
1.5583E-6	-66.38839
1.558345E-6	-66.538427
1.55839E-6	-67.567139
1.558435E-6	-70.062993
1.55848E-6	-74.830682
1.558525E-6	-79.370422
1.55857E-6	-82.842473
1.558615E-6	-87.203331
1.55866E-6	-84.271284
1.558705E-6	-83.948027
1.55875E-6	-81.540962
1.558795E-6	-73.506651
1.55884E-6	-69.062282
1.558885E-6	-67.011469
1.55893E-6	-66.597542
1.558975E-6	-66.516951
1.55902E-6	-66.532559
1.559065E-6	-66.478175
1.55911E-6	-66.567884
1.559155E-6	-66.710091
1.5592E-6	-67.708303
1.559245E-6	-70.196784
1.55929E-6	-75.40306
1.559335E-6	-79.597934
1.55938E-6	-82.82829
1.559425E-6	-84.947143
1.55947E-6	-85.9176
1.559515E-6	-85.88212
1.55956E-6	-82.551596
1.559605E-6	-73.749964
1.55965E-6	-69.385475
1.559695E-6	-67.244583
1.55974E-6	-66.773673
1.559785E-6	-66.79646
1.55983E-6	-66.74895
1.559875E-6	-66.689778
1.55992E-6	-66.761294
1.559965E-6	-66.942188
1.56001E-6	-67.986029
1.560055E-6	-70.383417
1.5601E-6	-75.15985
1.560145E-6	-79.788107
1.56019E-6	-83.212996
1.560235E-6	-84.609239
1.56028E-6	-83.628106
1.560325E-6	-84.020855
1.56037E-6	-81.352517
1.560415E-6	-74.130753
1.56046E-6	-69.702105
1.560505E-6	-67.617029
1.56055E-6	-67.144427
1.560595E-6	-67.066374
1.56064E-6	-67.079656
1.560685E-6	-67.090754
1.56073E-6	-67.139929
1.560775E-6	-67.316561
1.56082E-6	-68.353498
1.560865E-6	-70.679323
1.56091E-6	-75.424209
1.560955E-6	-79.722428
1.561E-6	-82.39276
1.561045E-6	-85.080783
1.56109E-6	-83.068009
1.561135E-6	-85.533075
1.56118E-6	-82.731913
1.561225E-6	-74.805658
1.56127E-6	-70.335767
1.561315E-6	-68.175853
1.56136E-6	-67.478754
1.561405E-6	-67.399286
1.56145E-6	-67.321246
1.561495E-6	-67.456937
1.56154E-6	-67.473897
1.561585E-6	-67.664962
1.56163E-6	-68.517059
1.561675E-6	-70.810266
1.56172E-6	-75.291487
1.561765E-6	-79.995659
1.56181E-6	-83.838397
1.561855E-6	-86.074789
1.5619E-6	-84.029633
1.561945E-6	-86.35449
1.56199E-6	-83.198459
1.562035E-6	-76.298572
1.56208E-6	-70.897492
1.562125E-6	-68.761484
1.56217E-6	-68.038238
1.562215E-6	-67.931741
1.56226E-6	-67.93714
1.562305E-6	-67.923656
1.56235E-6	-67.929045
1.562395E-6	-68.027194
1.56244E-6	-68.725712
1.562485E-6	-70.698153
1.56253E-6	-74.949858
1.562575E-6	-79.755143
1.56262E-6	-82.809174
1.562665E-6	-83.937261
1.56271E-6	-84.474535
1.562755E-6	-84.175957
1.5628E-6	-83.20663
1.562845E-6	-77.918275
1.56289E-6	-71.962698
1.562935E-6	-69.419538
1.56298E-6	-68.50473
1.563025E-6	-68.359447
1.56307E-6	-68.404328
1.563115E-6	-68.44057
1.56316E-6	-68.359447
1.563205E-6	-68.474059
1.56325E-6	-69.100949
1.563295E-6	-70.988142
1.56334E-6	-75.212892
1.563385E-6	-79.469216
1.56343E-6	-83.692671
1.563475E-6	-84.339162
1.56352E-6	-84.162346
1.563565E-6	-85.07519
1.56361E-6	-84.339162
1.563655E-6	-78.890738
1.5637E-6	-72.929411
1.563745E-6	-70.158329
1.56379E-6	-69.229957
1.563835E-6	-68.87395
1.56388E-6	-68.887375
1.563925E-6	-68.992849
1.56397E-6	-69.041335
1.564015E-6	-69.062282
1.56406E-6	-69.496202
1.564105E-6	-71.160548
1.56415E-6	-74.758636
1.564195E-6	-78.934691
1.56424E-6	-83.130957
1.564285E-6	-84.955291
1.56433E-6	-86.283781
1.564375E-6	-85.568935
1.56442E-6	-83.867926
1.564465E-6	-80.657541
1.56451E-6	-73.649186
1.564555E-6	-70.964759
1.5646E-6	-69.833845
1.564645E-6	-69.562449
1.56469E-6	-69.535048
1.564735E-6	-69.542859
1.56478E-6	-69.649707
1.564825E-6	-69.702105
1.56487E-6	-70.085081
1.564915E-6	-71.378686
1.56496E-6	-74.821446
1.565005E-6	-78.931295
1.56505E-6	-82.432118
1.565095E-6	-85.332806
1.56514E-6	-86.199698
1.565185E-6	-85.479068
1.56523E-6	-84.534573
1.565275E-6	-81.85819
1.56532E-6	-75.172693
1.565365E-6	-71.957924
1.56541E-6	-70.586874
1.565455E-6	-70.33014
1.5655E-6	-70.183626
1.565545E-6	-70.346101
1.56559E-6	-70.242007
1.565635E-6	-70.332015
1.56568E-6	-70.544329
1.565725E-6	-71.874208
1.56577E-6	-74.676279
1.565815E-6	-78.748442
1.56586E-6	-82.451168
1.565905E-6	-83.791355
1.56595E-6	-87.490923
1.565995E-6	-88.173001
1.56604E-6	-86.722325
1.566085E-6	-83.95882
1.56613E-6	-76.819367
1.566175E-6	-72.913242
1.56622E-6	-71.330632
1.566265E-6	-70.990869
1.56631E-6	-70.971815
1.566355E-6	-70.992506
1.5664E-6	-71.026479
1.566445E-6	-70.910863
1.56649E-6	-71.321202
1.566535E-6	-72.083094
1.56658E-6	-75.055671
1.566625E-6	-78.359447
1.56667E-6	-81.695396
1.566715E-6	-86.550186
1.56676E-6	-84.602968
1.566805E-6	-85.152732
1.56685E-6	-86.516951
1.566895E-6	-82.965367
1.56694E-6	-79.154237
1.566985E-6	-74.236586
1.56703E-6	-72.281187
1.567075E-6	-71.668529
1.56712E-6	-71.426675
1.567165E-6	-71.568919
1.56721E-6	-71.73666
1.567255E-6	-71.615917
1.5673E-6	-71.768519
1.567345E-6	-72.512694
1.56739E-6	-74.945787
1.567435E-6	-79.593977
1.56748E-6	-82.323248
1.567525E-6	-83.936186
1.56757E-6	-86.882461
1.567615E-6	-88.297383
1.56766E-6	-86.491707
1.567705E-6	-84.554359
1.56775E-6	-80.408632
1.567795E-6	-75.233133
1.56784E-6	-73.156934
1.567885E-6	-72.277517
1.56793E-6	-72.22066
1.567975E-6	-72.525105
1.56802E-6	-72.1846
1.568065E-6	-72.290744
1.56811E-6	-72.464935
1.568155E-6	-72.865935
1.5682E-6	-74.905286
1.568245E-6	-78.201611
1.56829E-6	-81.758091
1.568335E-6	-84.959371
1.56838E-6	-85.018273
1.568425E-6	-85.717032
1.56847E-6	-88.642315
1.568515E-6	-90
1.56856E-6	-83.130064
1.568605E-6	-76.734593
1.56865E-6	-74.236586
1.568695E-6	-73.215727
1.56874E-6	-72.898826
1.568785E-6	-72.981731
1.56883E-6	-72.85
1.568875E-6	-73.031196
1.56892E-6	-73.217548
1.568965E-6	-73.445734
1.56901E-6	-74.988038
1.569055E-6	-78.233301
1.5691E-6	-81.678105
1.569145E-6	-85.696024
1.56919E-6	-85.689581
1.569235E-6	-84.943075
1.56928E-6	-85.176982
1.569325E-6	-120
1.56937E-6	-83.367704
1.569415E-6	-79.473061
1.56946E-6	-75.554868
1.569505E-6	-74.003352
1.56955E-6	-73.341377
1.569595E-6	-73.67138
1.56964E-6	-73.5635
1.569685E-6	-73.636124
1.56973E-6	-73.804893
1.569775E-6	-74.133002
1.56982E-6	-75.045944
1.569865E-6	-77.90485
1.56991E-6	-80.706833
1.569955E-6	-83.231236
1.57E-6	-88.863908
