Wavelength (nm)	Power (dBm)
1.525E-6	-73.303113
1.525045E-6	-73.529106
1.52509E-6	-74.133002
1.525135E-6	-75.807053
1.52518E-6	-78.904215
1.525225E-6	-83.245883
1.52527E-6	-86.181632
1.525315E-6	-88.105097
1.52536E-6	-84.29107
1.525405E-6	-84.929541
1.52545E-6	-83.726341
1.525495E-6	-82.74415
1.52554E-6	-74.619292
1.525585E-6	-72.838297
1.52563E-6	-72.436682
1.525675E-6	-72.265793
1.52572E-6	-72.04259
1.525765E-6	-71.681942
1.52581E-6	-71.587031
1.525855E-6	-71.964063
1.5259E-6	-73.631111
1.525945E-6	-77.178312
1.52599E-6	-81.163953
1.526035E-6	-83.059215
1.52608E-6	-84.666093
1.526125E-6	-85.564241
1.52617E-6	-85.076587
1.526215E-6	-83.43327
1.52626E-6	-79.270153
1.526305E-6	-74.160082
1.52635E-6	-71.495376
1.526395E-6	-70.958798
1.52644E-6	-70.744816
1.526485E-6	-70.629337
1.52653E-6	-70.524193
1.526575E-6	-70.409586
1.52662E-6	-70.560111
1.526665E-6	-71.825007
1.52671E-6	-74.70313
1.526755E-6	-78.741935
1.5268E-6	-82.332155
1.526845E-6	-84.609239
1.52689E-6	-83.519329
1.526935E-6	-85.135695
1.52698E-6	-84.501388
1.527025E-6	-80.400052
1.52707E-6	-73.662287
1.527115E-6	-70.857627
1.52716E-6	-69.788107
1.527205E-6	-69.550685
1.52725E-6	-69.389247
1.527295E-6	-69.318141
1.52734E-6	-69.237237
1.527385E-6	-69.347939
1.52743E-6	-70.203151
1.527475E-6	-72.548471
1.52752E-6	-76.867657
1.527565E-6	-81.755487
1.52761E-6	-83.990271
1.527655E-6	-85.189876
1.5277E-6	-83.075938
1.527745E-6	-84.350973
1.52779E-6	-81.45269
1.527835E-6	-74.129629
1.52788E-6	-70.512448
1.527925E-6	-68.979095
1.52797E-6	-68.548036
1.528015E-6	-68.461851
1.52806E-6	-68.33866
1.528105E-6	-68.359447
1.52815E-6	-68.422411
1.528195E-6	-68.897471
1.52824E-6	-70.393865
1.528285E-6	-74.594203
1.52833E-6	-78.975663
1.528375E-6	-84.250432
1.52842E-6	-84.464811
1.528465E-6	-83.242217
1.52851E-6	-80.552213
1.528555E-6	-72.236621
1.5286E-6	-55.987718
1.528645E-6	-47.950665
1.52869E-6	-44.300412
1.528735E-6	-43.338566
1.52878E-6	-43.080349
1.528825E-6	-42.967086
1.52887E-6	-42.886146
1.528915E-6	-43.012907
1.52896E-6	-44.455108
1.529005E-6	-48.520147
1.52905E-6	-56.93575
1.529095E-6	-65.783961
1.52914E-6	-73.215727
1.529185E-6	-79.129288
1.52923E-6	-81.48497
1.529275E-6	-80.946359
1.52932E-6	-75.404567
1.529365E-6	-60.583395
1.52941E-6	-49.742846
1.529455E-6	-44.92279
1.5295E-6	-43.460161
1.529545E-6	-43.039933
1.52959E-6	-42.929411
1.529635E-6	-42.845817
1.52968E-6	-42.857541
1.529725E-6	-43.65422
1.52977E-6	-46.641411
1.529815E-6	-52.988639
1.52986E-6	-62.062096
1.529905E-6	-70.663103
1.52995E-6	-77.146678
1.529995E-6	-80.335297
1.53004E-6	-81.612139
1.530085E-6	-78.572978
1.53013E-6	-65.813673
1.530175E-6	-52.151688
1.53022E-6	-46.373291
1.530265E-6	-43.712025
1.53031E-6	-43.123819
1.530355E-6	-42.946495
1.5304E-6	-42.89375
1.530445E-6	-42.883615
1.53049E-6	-43.244966
1.530535E-6	-45.374523
1.53058E-6	-50.127808
1.530625E-6	-60.484197
1.53067E-6	-68.787685
1.530715E-6	-75.201369
1.53076E-6	-79.625735
1.530805E-6	-81.076827
1.53085E-6	-79.948195
1.530895E-6	-72.121854
1.53094E-6	-55.597208
1.530985E-6	-47.770236
1.53103E-6	-44.156688
1.531075E-6	-43.273481
1.53112E-6	-43.05044
1.531165E-6	-42.996425
1.53121E-6	-42.972249
1.531255E-6	-43.123819
1.5313E-6	-44.379452
1.531345E-6	-48.127614
1.53139E-6	-55.931193
1.531435E-6	-65.108856
1.53148E-6	-72.751509
1.531525E-6	-78.648673
1.53157E-6	-80.853924
1.531615E-6	-81.387644
1.53166E-6	-75.598784
1.531705E-6	-60.94474
1.53175E-6	-49.796387
1.531795E-6	-44.736607
1.53184E-6	-43.268869
1.531885E-6	-42.965367
1.53193E-6	-42.89798
1.531975E-6	-42.874345
1.53202E-6	-42.930263
1.532065E-6	-43.65926
1.53211E-6	-46.474316
1.532155E-6	-52.482591
1.5322E-6	-61.183871
1.532245E-6	-70.124231
1.53229E-6	-76.769543
1.532335E-6	-80.188612
1.53238E-6	-81.29362
1.532425E-6	-77.274622
1.53247E-6	-68.309136
1.532515E-6	-52.561768
1.53256E-6	-46.373291
1.532605E-6	-43.558569
1.53265E-6	-42.993828
1.532695E-6	-42.93709
1.53274E-6	-42.943073
1.532785E-6	-43.000756
1.53283E-6	-43.335756
1.532875E-6	-45.096201
1.53292E-6	-49.303319
1.532965E-6	-58.576105
1.53301E-6	-67.464197
1.533055E-6	-74.137504
1.5331E-6	-79.846402
1.533145E-6	-81.001248
1.53319E-6	-80.617806
1.533235E-6	-73.937261
1.53328E-6	-58.215987
1.533325E-6	-48.569852
1.53337E-6	-44.266642
1.533415E-6	-43.133637
1.53346E-6	-42.946495
1.533505E-6	-42.983457
1.53355E-6	-43.086532
1.533595E-6	-43.188493
1.53364E-6	-44.187332
1.533685E-6	-47.297871
1.53373E-6	-53.965308
1.533775E-6	-62.779422
1.53382E-6	-71.28252
1.533865E-6	-78.247782
1.53391E-6	-80.432075
1.533955E-6	-81.394224
1.534E-6	-78.291518
1.534045E-6	-65.499049
1.53409E-6	-51.796015
1.534135E-6	-45.448505
1.53418E-6	-43.382819
1.534225E-6	-42.953348
1.53427E-6	-42.946495
1.534315E-6	-43.020736
1.53436E-6	-43.168629
1.534405E-6	-43.729415
1.53445E-6	-46.022337
1.534495E-6	-51.015491
1.53454E-6	-61.137349
1.534585E-6	-69.50782
1.53463E-6	-75.55799
1.534675E-6	-79.694003
1.53472E-6	-82.231536
1.534765E-6	-80.358819
1.53481E-6	-72.766264
1.534855E-6	-56.293019
1.5349E-6	-47.804155
1.534945E-6	-43.853137
1.53499E-6	-42.958495
1.535035E-6	-42.897134
1.53508E-6	-42.93709
1.535125E-6	-43.03731
1.53517E-6	-43.316141
1.535215E-6	-44.621809
1.53526E-6	-48.215987
1.535305E-6	-55.603516
1.53535E-6	-64.694161
1.535395E-6	-72.429078
1.53544E-6	-79.430951
1.535485E-6	-81.01604
1.53553E-6	-81.163386
1.535575E-6	-76.443569
1.53562E-6	-64.391373
1.535665E-6	-51.222832
1.53571E-6	-45.176982
1.535755E-6	-43.244049
1.5358E-6	-42.881085
1.535845E-6	-42.94992
1.53589E-6	-43.006827
1.535935E-6	-43.127387
1.53598E-6	-43.741733
1.536025E-6	-46.151092
1.53607E-6	-51.26505
1.536115E-6	-61.689625
1.53616E-6	-69.097419
1.536205E-6	-75.941416
1.53625E-6	-80.078001
1.536295E-6	-82.463404
1.53634E-6	-80.014791
1.536385E-6	-73.043432
1.53643E-6	-56.420652
1.536475E-6	-47.972393
1.53652E-6	-44.016473
1.536565E-6	-43.082115
1.53661E-6	-42.968807
1.536655E-6	-42.999889
1.5367E-6	-43.096267
1.536745E-6	-43.311484
1.53679E-6	-44.57299
1.536835E-6	-48.268137
1.53688E-6	-55.982549
1.536925E-6	-65.037625
1.53697E-6	-73.065369
1.537015E-6	-78.800846
1.53706E-6	-81.229744
1.537105E-6	-81.477641
1.53715E-6	-76.722325
1.537195E-6	-64.634416
1.53724E-6	-51.385253
1.537285E-6	-45.282683
1.53733E-6	-43.347005
1.537375E-6	-42.933675
1.53742E-6	-42.917491
1.537465E-6	-42.933675
1.53751E-6	-42.986047
1.537555E-6	-43.533023
1.5376E-6	-45.868679
1.537645E-6	-50.931265
1.53769E-6	-61.463626
1.537735E-6	-69.503944
1.53778E-6	-75.798792
1.537825E-6	-79.665762
1.53787E-6	-81.558336
1.537915E-6	-80.285386
1.53796E-6	-73.801765
1.538005E-6	-58.136088
1.53805E-6	-48.498578
1.538095E-6	-44.163479
1.53814E-6	-43.052194
1.538185E-6	-42.87182
1.53823E-6	-42.887835
1.538275E-6	-42.9073
1.53832E-6	-42.992098
1.538365E-6	-44.115042
1.53841E-6	-47.718564
1.538455E-6	-55.089186
1.5385E-6	-64.120647
1.538545E-6	-72.299584
1.53859E-6	-78.079904
1.538635E-6	-81.634227
1.53868E-6	-82.107719
1.538725E-6	-78.353498
1.53877E-6	-66.382722
1.538815E-6	-52.418454
1.53886E-6	-46.407338
1.538905E-6	-43.684548
1.53895E-6	-43.163227
1.538995E-6	-43.092725
1.53904E-6	-43.056581
1.539085E-6	-43.057459
1.53913E-6	-43.399888
1.539175E-6	-45.480601
1.53922E-6	-50.185438
1.539265E-6	-60.313303
1.53931E-6	-68.699881
1.539355E-6	-75.713793
1.5394E-6	-79.226321
1.539445E-6	-78.867253
1.53949E-6	-80.940423
1.539535E-6	-74.55932
1.53958E-6	-58.996295
1.539625E-6	-49.037854
1.53967E-6	-44.565528
1.539715E-6	-43.316141
1.53976E-6	-43.083881
1.539805E-6	-42.977418
1.53985E-6	-42.940508
1.539895E-6	-43.005959
1.53994E-6	-43.976144
1.539985E-6	-47.276942
1.54003E-6	-54.086014
1.540075E-6	-63.005092
1.54012E-6	-71.262145
1.540165E-6	-78.341624
1.54021E-6	-81.140737
1.540255E-6	-81.4752
1.5403E-6	-79.538952
1.540345E-6	-69.863203
1.54039E-6	-53.541849
1.540435E-6	-46.876111
1.54048E-6	-43.790316
1.540525E-6	-43.136319
1.54057E-6	-42.992963
1.540615E-6	-42.930263
1.54066E-6	-42.924298
1.540705E-6	-43.178549
1.54075E-6	-44.994891
1.540795E-6	-49.200955
1.54084E-6	-58.613816
1.540885E-6	-67.447275
1.54093E-6	-74.762535
1.540975E-6	-79.446217
1.54102E-6	-82.172408
1.541065E-6	-80.823895
1.54111E-6	-75.684754
1.541155E-6	-61.26505
1.5412E-6	-49.943906
1.541245E-6	-44.949858
1.54129E-6	-43.392294
1.541335E-6	-43.066248
1.54138E-6	-42.967946
1.541425E-6	-42.89375
1.54147E-6	-42.927706
1.541515E-6	-43.622102
1.54156E-6	-46.36388
1.541605E-6	-52.206922
1.54165E-6	-60.655521
1.541695E-6	-69.605859
1.54174E-6	-76.483969
1.541785E-6	-79.423339
1.54183E-6	-82.114074
1.541875E-6	-80.059029
1.54192E-6	-72.053029
1.541965E-6	-55.285616
1.54201E-6	-47.624563
1.542055E-6	-44.049449
1.5421E-6	-43.200273
1.542145E-6	-42.995559
1.54219E-6	-42.942218
1.542235E-6	-42.898826
1.54228E-6	-43.019865
1.542325E-6	-44.222785
1.54237E-6	-47.947956
1.542415E-6	-55.559552
1.54246E-6	-64.375882
1.542505E-6	-72.335128
1.54255E-6	-78.513973
1.542595E-6	-83.498868
1.54264E-6	-81.213633
1.542685E-6	-77.244583
1.54273E-6	-65.404567
1.542775E-6	-51.962016
1.54282E-6	-46.115435
1.542865E-6	-43.561527
1.54291E-6	-43.09361
1.542955E-6	-42.989504
1.543E-6	-42.94992
1.543045E-6	-42.927706
1.54309E-6	-43.255982
1.543135E-6	-45.189876
1.54318E-6	-49.746941
1.543225E-6	-59.689957
1.54327E-6	-68.027194
1.543315E-6	-74.762535
1.54336E-6	-79.488475
1.543405E-6	-81.140737
1.54345E-6	-81.010555
1.543495E-6	-75.016894
1.54354E-6	-59.863203
1.543585E-6	-49.366666
1.54363E-6	-44.626847
1.543675E-6	-43.284569
1.54372E-6	-43.020736
1.543765E-6	-42.968807
1.54381E-6	-42.930263
1.543855E-6	-42.987775
1.5439E-6	-43.796557
1.543945E-6	-46.73869
1.54399E-6	-52.97311
1.544035E-6	-61.495989
1.54408E-6	-70.323584
1.544125E-6	-77.258422
1.54417E-6	-80.380097
1.544215E-6	-81.297717
1.54426E-6	-79.511699
1.544305E-6	-70.982149
1.54435E-6	-54.886515
1.544395E-6	-47.399286
1.54444E-6	-43.926522
1.544485E-6	-43.141687
1.54453E-6	-43.005959
1.544575E-6	-42.981731
1.54462E-6	-42.988639
1.544665E-6	-43.101586
1.54471E-6	-44.364003
1.544755E-6	-48.253588
1.5448E-6	-56.3865
1.544845E-6	-65.416644
1.54489E-6	-72.953348
1.544935E-6	-78.604357
1.54498E-6	-81.487417
1.545025E-6	-81.298303
1.54507E-6	-78.01893
1.545115E-6	-64.636941
1.54516E-6	-51.58578
1.545205E-6	-45.479068
1.54525E-6	-43.441895
1.545295E-6	-42.970528
1.54534E-6	-42.860057
1.545385E-6	-42.876029
1.54543E-6	-42.880241
1.545475E-6	-43.225756
1.54552E-6	-45.145625
1.545565E-6	-49.613798
1.54561E-6	-59.229957
1.545655E-6	-67.827793
1.5457E-6	-74.410516
1.545745E-6	-79.450041
1.54579E-6	-81.144126
1.545835E-6	-80.40148
1.54588E-6	-75.107448
1.545925E-6	-60.378675
1.54597E-6	-49.30702
1.546015E-6	-44.6572
1.54606E-6	-43.291977
1.546105E-6	-43.046059
1.54615E-6	-43.018124
1.546195E-6	-42.976556
1.54624E-6	-43.020736
1.546285E-6	-43.664306
1.54633E-6	-46.274562
1.546375E-6	-52.039116
1.54642E-6	-60.933418
1.546465E-6	-69.75925
1.54651E-6	-76.22876
1.546555E-6	-79.97402
1.5466E-6	-82.033563
1.546645E-6	-80.34187
1.54669E-6	-72.689756
1.546735E-6	-56.424463
1.54678E-6	-48.155925
1.546825E-6	-44.270123
1.54687E-6	-43.291977
1.546915E-6	-43.108688
1.54696E-6	-43.054825
1.547005E-6	-43.02422
1.54705E-6	-43.160529
1.547095E-6	-44.277094
1.54714E-6	-47.785858
1.547185E-6	-54.754741
1.54723E-6	-63.73044
1.547275E-6	-71.990768
1.54732E-6	-77.632109
1.547365E-6	-81.080168
1.54741E-6	-82.449641
1.547455E-6	-79.023957
1.5475E-6	-68.392314
1.547545E-6	-52.843309
1.54759E-6	-46.558043
1.547635E-6	-43.645163
1.54768E-6	-43.054825
1.547725E-6	-42.94564
1.54777E-6	-42.931969
1.547815E-6	-42.909846
1.54786E-6	-43.096267
1.547905E-6	-44.634416
1.54795E-6	-48.735439
1.547995E-6	-57.219327
1.54804E-6	-66.048484
1.548085E-6	-73.464981
1.54813E-6	-78.437538
1.548175E-6	-81.772437
1.54822E-6	-81.083511
1.548265E-6	-76.241536
1.54831E-6	-62.932822
1.548355E-6	-50.576942
1.5484E-6	-45.171264
1.548445E-6	-43.467875
1.54849E-6	-43.084765
1.548535E-6	-42.999023
1.54858E-6	-42.999023
1.548625E-6	-43.005959
1.54867E-6	-43.420841
1.548715E-6	-45.505216
1.54876E-6	-50.301184
1.548805E-6	-60.519295
1.54885E-6	-68.569852
1.548895E-6	-75.506759
1.54894E-6	-79.303319
1.548985E-6	-81.655157
1.54903E-6	-80.654511
1.549075E-6	-74.443011
1.54912E-6	-59.880069
1.549165E-6	-49.351678
1.54921E-6	-44.502613
1.549255E-6	-43.1078
1.5493E-6	-42.85335
1.549345E-6	-42.800889
1.54939E-6	-42.778599
1.549435E-6	-42.85335
1.54948E-6	-43.459198
1.549525E-6	-45.975667
1.54957E-6	-51.408016
1.549615E-6	-61.943632
1.54966E-6	-69.75104
1.549705E-6	-75.865326
1.54975E-6	-79.566377
1.549795E-6	-81.196438
1.54984E-6	-80.124231
1.549885E-6	-72.992963
1.54993E-6	-56.50334
1.549975E-6	-48.17015
1.55002E-6	-44.2159
1.550065E-6	-43.191208
1.55011E-6	-43.018124
1.550155E-6	-42.974833
1.5502E-6	-42.980005
1.550245E-6	-43.041682
1.55029E-6	-43.838397
1.550335E-6	-46.695862
1.55038E-6	-52.938799
1.550425E-6	-61.777665
1.55047E-6	-70.492945
1.550515E-6	-76.92504
1.55056E-6	-81.060719
1.550605E-6	-82.451168
1.55065E-6	-79.359166
1.550695E-6	-70.975619
1.55074E-6	-54.535807
1.550785E-6	-47.178312
1.55083E-6	-43.820566
1.550875E-6	-43.039058
1.55092E-6	-42.890369
1.550965E-6	-42.896287
1.55101E-6	-42.861736
1.551055E-6	-42.98432
1.5511E-6	-44.129629
1.551145E-6	-47.692957
1.55119E-6	-55.015516
1.551235E-6	-64.016473
1.55128E-6	-71.886261
1.551325E-6	-78.099486
1.55137E-6	-81.12439
1.551415E-6	-80.870874
1.55146E-6	-78.51089
1.551505E-6	-68.33866
1.55155E-6	-52.846653
1.551595E-6	-46.5738
1.55164E-6	-43.715089
1.551685E-6	-43.118472
1.55173E-6	-43.046935
1.551775E-6	-42.988639
1.55182E-6	-42.987775
1.551865E-6	-43.187588
1.55191E-6	-44.658469
1.551955E-6	-48.71924
1.552E-6	-56.970201
1.552045E-6	-65.676722
1.55209E-6	-73.2468
1.552135E-6	-79.013563
1.55218E-6	-80.822845
1.552225E-6	-81.149216
1.55227E-6	-77.272304
1.552315E-6	-65.065419
1.55236E-6	-52.012803
1.552405E-6	-46.197888
1.55245E-6	-43.54676
1.552495E-6	-43.087416
1.55254E-6	-43.032942
1.552585E-6	-42.963648
1.55263E-6	-42.955063
1.552675E-6	-43.233978
1.55272E-6	-44.975729
1.552765E-6	-49.150664
1.55281E-6	-58.323873
1.552855E-6	-66.959405
1.5529E-6	-74.113922
1.552945E-6	-78.982529
1.55299E-6	-81.648169
1.553035E-6	-80.703767
1.55308E-6	-76.219657
1.553125E-6	-61.922621
1.55317E-6	-50.194058
1.553215E-6	-44.951215
1.55326E-6	-43.320803
1.553305E-6	-42.97828
1.55335E-6	-42.918341
1.553395E-6	-42.857541
1.55344E-6	-42.85838
1.553485E-6	-43.275327
1.55353E-6	-45.332806
1.553575E-6	-49.982663
1.55362E-6	-59.746941
1.553665E-6	-68.029953
1.55371E-6	-74.788619
1.553755E-6	-79.393022
1.5538E-6	-81.178741
1.553845E-6	-80.41962
1.55389E-6	-75.174122
1.553935E-6	-60.531549
1.55398E-6	-49.531148
1.554025E-6	-44.774254
1.55407E-6	-43.347005
1.554115E-6	-43.09361
1.55416E-6	-43.006827
1.554205E-6	-42.958495
1.55425E-6	-42.986911
1.554295E-6	-43.474636
1.55434E-6	-45.746288
1.554385E-6	-50.785216
1.55443E-6	-61.281353
1.554475E-6	-69.389247
1.55452E-6	-75.689581
1.554565E-6	-80.019151
1.55461E-6	-81.943632
1.554655E-6	-80.874591
1.5547E-6	-74.225082
1.554745E-6	-59.08333
1.55479E-6	-48.897471
1.554835E-6	-44.489161
1.55488E-6	-43.390397
1.554925E-6	-43.080349
1.55497E-6	-43.004224
1.555015E-6	-43.004224
1.55506E-6	-43.008563
1.555105E-6	-43.5635
1.55515E-6	-46.013657
1.555195E-6	-51.519341
1.55524E-6	-62.219211
1.555285E-6	-68.955129
1.55533E-6	-76.478175
1.555375E-6	-79.901244
1.55542E-6	-81.935487
1.555465E-6	-80.735547
1.55551E-6	-72.968807
1.555555E-6	-56.948637
1.5556E-6	-48.44057
1.555645E-6	-44.46967
1.55569E-6	-43.383766
1.555735E-6	-43.174037
1.55578E-6	-43.125602
1.555825E-6	-43.057459
1.55587E-6	-43.089185
1.555915E-6	-43.70081
1.55596E-6	-46.174427
1.556005E-6	-51.832286
1.55605E-6	-60.380097
1.556095E-6	-69.404366
1.55614E-6	-76.556077
1.556185E-6	-80.258569
1.55623E-6	-81.662156
1.556275E-6	-79.665762
1.55632E-6	-72.647206
1.556365E-6	-56.263525
1.55641E-6	-47.980569
1.556455E-6	-44.155557
1.5565E-6	-43.156035
1.556545E-6	-42.967086
1.55659E-6	-42.922595
1.556635E-6	-42.901367
1.55668E-6	-43.012037
1.556725E-6	-43.725317
1.55677E-6	-46.35074
1.556815E-6	-52.401056
1.55686E-6	-60.966929
1.556905E-6	-69.775716
1.55695E-6	-76.458916
1.556995E-6	-80.352691
1.55704E-6	-81.084068
1.557085E-6	-80.716041
1.55713E-6	-72.621715
1.557175E-6	-56.149302
1.55722E-6	-47.886124
1.557265E-6	-44.161214
1.55731E-6	-43.165927
1.557355E-6	-42.937945
1.5574E-6	-42.915791
1.557445E-6	-42.927706
1.55749E-6	-42.961929
1.557535E-6	-43.77786
1.55758E-6	-46.712128
1.557625E-6	-53.018124
1.55767E-6	-61.712113
1.557715E-6	-70.326393
1.55776E-6	-77.325936
1.557805E-6	-80.302115
1.55785E-6	-82.366469
1.557895E-6	-80.102833
1.55794E-6	-72.121854
1.557985E-6	-55.573635
1.55803E-6	-47.6675
1.558075E-6	-44.025242
1.55812E-6	-43.032942
1.558165E-6	-42.859218
1.55821E-6	-42.839967
1.558255E-6	-42.861736
1.5583E-6	-42.937945
1.558345E-6	-43.701828
1.55839E-6	-46.476245
1.558435E-6	-52.57825
1.55848E-6	-61.415831
1.558525E-6	-69.952488
1.55857E-6	-76.907958
1.558615E-6	-79.961088
1.55866E-6	-81.994891
1.558705E-6	-80.187252
1.55875E-6	-72.182446
1.558795E-6	-56.067759
1.55884E-6	-47.840982
1.558885E-6	-44.053865
1.55893E-6	-43.075056
1.558975E-6	-42.883615
1.55902E-6	-42.911544
1.559065E-6	-42.964507
1.55911E-6	-43.027707
1.559155E-6	-43.791355
1.5592E-6	-46.701955
1.559245E-6	-52.747419
1.55929E-6	-61.340082
1.559335E-6	-70.136762
1.55938E-6	-76.857113
1.559425E-6	-80.391013
1.55947E-6	-80.981604
1.559515E-6	-80.610302
1.55956E-6	-72.742517
1.559605E-6	-56.236056
1.55965E-6	-48.035475
1.559695E-6	-44.086014
1.55974E-6	-43.090954
1.559785E-6	-42.960212
1.55983E-6	-42.992963
1.559875E-6	-43.013776
1.55992E-6	-43.121145
1.559965E-6	-43.911532
1.56001E-6	-46.808939
1.560055E-6	-53.166827
1.5601E-6	-61.979107
1.560145E-6	-70.473044
1.56019E-6	-77.423214
1.560235E-6	-80.522233
1.56028E-6	-81.385851
1.560325E-6	-80.109954
1.56037E-6	-72.407856
1.560415E-6	-56.192462
1.56046E-6	-47.74174
1.560505E-6	-43.854191
1.56055E-6	-42.967086
1.560595E-6	-42.836627
1.56064E-6	-42.876029
1.560685E-6	-42.913242
1.56073E-6	-43.005959
1.560775E-6	-43.741733
1.56082E-6	-46.593576
1.560865E-6	-52.557853
1.56091E-6	-61.457547
1.560955E-6	-70.115748
1.561E-6	-76.836102
1.561045E-6	-80.430636
1.56109E-6	-81.494763
1.561135E-6	-80.288634
1.56118E-6	-73.348883
1.561225E-6	-57.090754
1.56127E-6	-48.190144
1.561315E-6	-44.016473
1.56136E-6	-42.992098
1.561405E-6	-42.860896
1.56145E-6	-42.869297
1.561495E-6	-42.911544
1.56154E-6	-43.026835
1.561585E-6	-43.699791
1.56163E-6	-46.356366
1.561675E-6	-52.188912
1.56172E-6	-60.691528
1.561765E-6	-69.755143
1.56181E-6	-76.712128
1.561855E-6	-80.783135
1.5619E-6	-81.47581
1.561945E-6	-81.617808
1.56199E-6	-74.405722
1.562035E-6	-59.248181
1.56208E-6	-48.837244
1.562125E-6	-44.308603
1.56217E-6	-43.106023
1.562215E-6	-42.954206
1.56226E-6	-42.977418
1.562305E-6	-43.031196
1.56235E-6	-43.136319
1.562395E-6	-43.674415
1.56244E-6	-45.991168
1.562485E-6	-51.144126
1.56253E-6	-61.669805
1.562575E-6	-69.613798
1.56262E-6	-75.89729
1.562665E-6	-79.673812
1.56271E-6	-81.337127
1.562755E-6	-80.458057
1.5628E-6	-74.975729
1.562845E-6	-60.618807
1.56289E-6	-49.273825
1.562935E-6	-44.352156
1.56298E-6	-42.969667
1.563025E-6	-42.747419
1.56307E-6	-42.770372
1.563115E-6	-42.829123
1.56316E-6	-42.965367
1.563205E-6	-43.435185
1.56325E-6	-45.55799
1.563295E-6	-50.446009
1.56334E-6	-60.739149
1.563385E-6	-68.671002
1.56343E-6	-75.589336
1.563475E-6	-79.303319
1.56352E-6	-81.756789
1.563565E-6	-80.828622
1.56361E-6	-76.392173
1.563655E-6	-62.865935
1.5637E-6	-50.351749
1.563745E-6	-44.744369
1.56379E-6	-43.089185
1.563835E-6	-42.808345
1.56388E-6	-42.850838
1.563925E-6	-42.940508
1.56397E-6	-43.052194
1.564015E-6	-43.442855
1.56406E-6	-45.269512
1.564105E-6	-49.653715
1.56415E-6	-59.048306
1.564195E-6	-67.634627
1.56424E-6	-74.732731
1.564285E-6	-79.027427
1.56433E-6	-82.038421
1.564375E-6	-82.320283
1.56442E-6	-78.210231
1.564465E-6	-65.861975
1.56451E-6	-51.794045
1.564555E-6	-45.326879
1.5646E-6	-43.306831
1.564645E-6	-42.927706
1.56469E-6	-42.947351
1.564735E-6	-43.029451
1.56478E-6	-43.177646
1.564825E-6	-43.507625
1.56487E-6	-45.094797
1.564915E-6	-49.069287
1.56496E-6	-57.721133
1.565005E-6	-66.542343
1.56505E-6	-74.011001
1.565095E-6	-79.034376
1.56514E-6	-81.494763
1.565185E-6	-82.25483
1.56523E-6	-78.830604
1.565275E-6	-68.857227
1.56532E-6	-53.078584
1.565365E-6	-46.35449
1.56541E-6	-43.368647
1.565455E-6	-42.829123
1.5655E-6	-42.85838
1.565545E-6	-42.947351
1.56559E-6	-43.06361
1.565635E-6	-43.317073
1.56568E-6	-44.645793
1.565725E-6	-48.416375
1.56577E-6	-56.088884
1.565815E-6	-64.863829
1.56586E-6	-72.814153
1.565905E-6	-78.486301
1.56595E-6	-81.546539
1.565995E-6	-83.051317
1.56604E-6	-79.931063
1.566085E-6	-71.410419
1.56613E-6	-55.062632
1.566175E-6	-47.342391
1.56622E-6	-43.670368
1.566265E-6	-42.90052
1.56631E-6	-42.892059
1.566355E-6	-43.003357
1.5664E-6	-43.109577
1.566445E-6	-43.320803
1.56649E-6	-44.379452
1.566535E-6	-47.659892
1.56658E-6	-54.440596
1.566625E-6	-63.331078
1.56667E-6	-71.789452
1.566715E-6	-78.377344
1.56676E-6	-81.438151
1.566805E-6	-82.967086
1.56685E-6	-85.50059
1.566895E-6	-82.597953
1.56694E-6	-80.388638
1.566985E-6	-75.654311
1.56703E-6	-73.022477
1.567075E-6	-73.418932
1.56712E-6	-73.484313
1.567165E-6	-73.336693
1.56721E-6	-73.308692
1.567255E-6	-73.331078
1.5673E-6	-73.640139
1.567345E-6	-74.433357
1.56739E-6	-76.362001
1.567435E-6	-79.714287
1.56748E-6	-83.098039
1.567525E-6	-85.237482
1.56757E-6	-85.329842
1.567615E-6	-86.07303
1.56766E-6	-84.10609
1.567705E-6	-84.143137
1.56775E-6	-81.114274
1.567795E-6	-76.755118
1.56784E-6	-74.89187
1.567885E-6	-74.113922
1.56793E-6	-73.957739
1.567975E-6	-73.811155
1.56802E-6	-74.05497
1.568065E-6	-74.040631
1.56811E-6	-74.112802
1.568155E-6	-74.778167
1.5682E-6	-76.20332
1.568245E-6	-79.325572
1.56829E-6	-82.495688
1.568335E-6	-85.201369
1.56838E-6	-83.930815
1.568425E-6	-83.212996
1.56847E-6	-84.837291
1.568515E-6	-84.607984
1.56856E-6	-82.306227
1.568605E-6	-79.389247
1.56865E-6	-76.68168
1.568695E-6	-74.592952
1.56874E-6	-74.418917
1.568785E-6	-74.523483
1.56883E-6	-74.70698
1.568875E-6	-74.820128
1.56892E-6	-74.661009
1.568965E-6	-74.990778
1.56901E-6	-76.637404
1.569055E-6	-78.784402
1.5691E-6	-81.936843
1.569145E-6	-83.987007
1.56919E-6	-85.370034
1.569235E-6	-84.280584
1.56928E-6	-84.584208
1.569325E-6	-86.593576
1.56937E-6	-84.177093
1.569415E-6	-79.931063
1.56946E-6	-77.101882
1.569505E-6	-75.934598
1.56955E-6	-75.431787
1.569595E-6	-75.082182
1.56964E-6	-75.337257
1.569685E-6	-75.295895
1.56973E-6	-75.386516
1.569775E-6	-75.813673
1.56982E-6	-76.276404
1.569865E-6	-78.477117
1.56991E-6	-82.303273
1.569955E-6	-84.576726
1.57E-6	-85.254924
