Wavelength (nm)	Power (dBm)
1.525E-6	-71.044117
1.525045E-6	-70.887891
1.52509E-6	-71.372725
1.525135E-6	-73.421795
1.52518E-6	-76.836102
1.525225E-6	-80.556654
1.52527E-6	-83.263341
1.525315E-6	-83.689623
1.52536E-6	-82.636832
1.525405E-6	-83.932963
1.52545E-6	-81.251125
1.525495E-6	-76.377061
1.52554E-6	-72.195387
1.525585E-6	-70.421534
1.52563E-6	-69.888526
1.525675E-6	-69.574245
1.52572E-6	-69.453869
1.525765E-6	-69.215432
1.52581E-6	-69.157813
1.525855E-6	-69.393022
1.5259E-6	-70.869283
1.525945E-6	-74.539511
1.52599E-6	-78.999743
1.526035E-6	-82.205478
1.52608E-6	-82.992098
1.526125E-6	-83.437101
1.52617E-6	-83.240385
1.526215E-6	-81.941595
1.52626E-6	-75.987718
1.526305E-6	-71.494763
1.52635E-6	-69.147094
1.526395E-6	-68.395315
1.52644E-6	-68.167302
1.526485E-6	-68.107905
1.52653E-6	-67.9129
1.526575E-6	-67.870138
1.52662E-6	-68.150248
1.526665E-6	-69.325572
1.52671E-6	-71.9382
1.526755E-6	-76.888822
1.5268E-6	-80.780016
1.526845E-6	-82.881085
1.52689E-6	-82.553159
1.526935E-6	-83.212996
1.52698E-6	-82.680086
1.527025E-6	-76.375175
1.52707E-6	-71.250546
1.527115E-6	-68.383326
1.52716E-6	-67.205612
1.527205E-6	-67.018021
1.52725E-6	-66.869769
1.527295E-6	-66.79646
1.52734E-6	-66.708056
1.527385E-6	-66.786087
1.52743E-6	-67.690404
1.527475E-6	-70
1.52752E-6	-74.355707
1.527565E-6	-77.775437
1.52761E-6	-81.223408
1.527655E-6	-81.58578
1.5277E-6	-82.770372
1.527745E-6	-82.437444
1.52779E-6	-79.377942
1.527835E-6	-71.671081
1.52788E-6	-67.715996
1.527925E-6	-66.337639
1.52797E-6	-65.951663
1.528015E-6	-65.853609
1.52806E-6	-65.798792
1.528105E-6	-65.75445
1.52815E-6	-65.792194
1.528195E-6	-66.230582
1.52824E-6	-68.204482
1.528285E-6	-71.890286
1.52833E-6	-77.207895
1.528375E-6	-81.039149
1.52842E-6	-82.223557
1.528465E-6	-82.742517
1.52851E-6	-83.347944
1.528555E-6	-80.426322
1.5286E-6	-72.568824
1.528645E-6	-67.557229
1.52869E-6	-65.683147
1.528735E-6	-65.16698
1.52878E-6	-65.040396
1.528825E-6	-65.014138
1.52887E-6	-64.983931
1.528915E-6	-64.933597
1.52896E-6	-65.210009
1.529005E-6	-66.655462
1.52905E-6	-69.779843
1.529095E-6	-75.201369
1.52914E-6	-79.453869
1.529185E-6	-82.60665
1.52923E-6	-82.076784
1.529275E-6	-82.607442
1.52932E-6	-81.244179
1.529365E-6	-74.034029
1.52941E-6	-68.416375
1.529455E-6	-65.564241
1.5295E-6	-64.692882
1.529545E-6	-64.470885
1.52959E-6	-64.385408
1.529635E-6	-64.353339
1.52968E-6	-64.225082
1.529725E-6	-64.40213
1.52977E-6	-65.43027
1.529815E-6	-68.119156
1.52986E-6	-72.428318
1.529905E-6	-78.53252
1.52995E-6	-81.842231
1.529995E-6	-82.079587
1.53004E-6	-82.904756
1.530085E-6	-81.482526
1.53013E-6	-76.256183
1.530175E-6	-69.673812
1.53022E-6	-65.746288
1.530265E-6	-64.380642
1.53031E-6	-64.093811
1.530355E-6	-63.994627
1.5304E-6	-64.012095
1.530445E-6	-63.962063
1.53049E-6	-63.950184
1.530535E-6	-64.579219
1.53058E-6	-66.593576
1.530625E-6	-70.31237
1.53067E-6	-76.569855
1.530715E-6	-80.352691
1.53076E-6	-81.868195
1.530805E-6	-82.019021
1.53085E-6	-82.196827
1.530895E-6	-79.400581
1.53094E-6	-71.267375
1.530985E-6	-66.416844
1.53103E-6	-64.441803
1.531075E-6	-63.84892
1.53112E-6	-63.713046
1.531165E-6	-63.732491
1.53121E-6	-63.649186
1.531255E-6	-63.690639
1.5313E-6	-63.988095
1.531345E-6	-65.491353
1.53139E-6	-68.87395
1.531435E-6	-74.094925
1.53148E-6	-79.333014
1.531525E-6	-82.073982
1.53157E-6	-81.512568
1.531615E-6	-81.988022
1.53166E-6	-81.166793
1.531705E-6	-73.844708
1.53175E-6	-67.607005
1.531795E-6	-64.929541
1.53184E-6	-63.993538
1.531885E-6	-63.826851
1.53193E-6	-63.851028
1.531975E-6	-63.776823
1.53202E-6	-63.783045
1.532065E-6	-63.887016
1.53211E-6	-64.791236
1.532155E-6	-67.318903
1.5322E-6	-71.60145
1.532245E-6	-77.554755
1.53229E-6	-80.608303
1.532335E-6	-82.092927
1.53238E-6	-81.942953
1.532425E-6	-82.423763
1.53247E-6	-76.530605
1.532515E-6	-69.965395
1.53256E-6	-65.764265
1.532605E-6	-64.325031
1.53265E-6	-63.983745
1.532695E-6	-63.887016
1.53274E-6	-63.907258
1.532785E-6	-63.91688
1.53283E-6	-63.975059
1.532875E-6	-64.42132
1.53292E-6	-66.300424
1.532965E-6	-69.880069
1.53301E-6	-75.944829
1.533055E-6	-79.746941
1.5331E-6	-82.12823
1.533145E-6	-81.658337
1.53319E-6	-82.447351
1.533235E-6	-80.225508
1.53328E-6	-72.718898
1.533325E-6	-67.469044
1.53337E-6	-65.165554
1.533415E-6	-64.544455
1.53346E-6	-64.394956
1.533505E-6	-64.474535
1.53355E-6	-64.519793
1.533595E-6	-64.560561
1.53364E-6	-64.837291
1.533685E-6	-65.902359
1.53373E-6	-68.857227
1.533775E-6	-73.130957
1.53382E-6	-78.395315
1.533865E-6	-81.350145
1.53391E-6	-81.978422
1.533955E-6	-81.233204
1.534E-6	-81.285438
1.534045E-6	-78.141746
1.53409E-6	-70.400528
1.534135E-6	-66.701955
1.53418E-6	-65.499049
1.534225E-6	-65.162701
1.53427E-6	-65.230235
1.534315E-6	-65.244741
1.53436E-6	-65.350636
1.534405E-6	-65.379016
1.53445E-6	-65.967079
1.534495E-6	-67.920965
1.53454E-6	-71.45269
1.534585E-6	-77.413627
1.53463E-6	-80.604807
1.534675E-6	-82.439728
1.53472E-6	-82.296636
1.534765E-6	-83.089185
1.53481E-6	-80.050233
1.534855E-6	-73.565473
1.5349E-6	-68.887375
1.534945E-6	-66.589614
1.53499E-6	-66.067759
1.535035E-6	-65.941416
1.53508E-6	-65.999804
1.535125E-6	-66.074789
1.53517E-6	-66.131445
1.535215E-6	-66.332036
1.53526E-6	-67.602002
1.535305E-6	-70.261797
1.53535E-6	-74.989407
1.535395E-6	-79.718356
1.53544E-6	-80.555667
1.535485E-6	-80.575951
1.53553E-6	-76.728455
1.535575E-6	-71.132837
1.53562E-6	-58.604357
1.535665E-6	-43.857357
1.53571E-6	-38.551146
1.535755E-6	-36.50334
1.5358E-6	-36.051982
1.535845E-6	-36.133227
1.53589E-6	-36.212388
1.535935E-6	-36.324577
1.53598E-6	-36.907958
1.536025E-6	-39.20457
1.53607E-6	-44.774254
1.536115E-6	-54.93901
1.53616E-6	-63.190303
1.536205E-6	-70.090399
1.53625E-6	-76.022337
1.536295E-6	-79.54677
1.53634E-6	-80.630341
1.536385E-6	-80.174574
1.53643E-6	-74.478187
1.536475E-6	-69.995659
1.53652E-6	-67.89414
1.536565E-6	-67.302536
1.53661E-6	-67.293212
1.536655E-6	-67.361273
1.5367E-6	-67.347104
1.536745E-6	-67.344747
1.53679E-6	-67.629592
1.536835E-6	-68.857227
1.53688E-6	-71.433919
1.536925E-6	-76.241536
1.53697E-6	-79.673812
1.537015E-6	-80.774821
1.53706E-6	-80
1.537105E-6	-77.18285
1.53715E-6	-71.405615
1.537195E-6	-59.006647
1.53724E-6	-43.82266
1.537285E-6	-38.610661
1.53733E-6	-36.550186
1.537375E-6	-36.143937
1.53742E-6	-36.110112
1.537465E-6	-36.140364
1.53751E-6	-36.201508
1.537555E-6	-36.675615
1.5376E-6	-38.941493
1.537645E-6	-44.4855
1.53769E-6	-54.58296
1.537735E-6	-62.825792
1.53778E-6	-69.948195
1.537825E-6	-75.890541
1.53787E-6	-79.3968
1.537915E-6	-79.292235
1.53796E-6	-79.726504
1.538005E-6	-75.118725
1.53805E-6	-70.820746
1.538095E-6	-68.677403
1.53814E-6	-67.947956
1.538185E-6	-67.79369
1.53823E-6	-67.827793
1.538275E-6	-67.739159
1.53832E-6	-67.899492
1.538365E-6	-68.065971
1.53841E-6	-69.111554
1.538455E-6	-71.605848
1.5385E-6	-75.797141
1.538545E-6	-79.593977
1.53859E-6	-81.164521
1.538635E-6	-80.757724
1.53868E-6	-78.250684
1.538725E-6	-72.22066
1.53877E-6	-60.567034
1.538815E-6	-46.174427
1.53886E-6	-39.161392
1.538905E-6	-36.861328
1.53895E-6	-36.324577
1.538995E-6	-36.226937
1.53904E-6	-36.206945
1.539085E-6	-36.187044
1.53913E-6	-36.53647
1.539175E-6	-38.576105
1.53922E-6	-43.657243
1.539265E-6	-53.39514
1.53931E-6	-62.104898
1.539355E-6	-69.143527
1.5394E-6	-75.332806
1.539445E-6	-78.985966
1.53949E-6	-79.965395
1.539535E-6	-80.160131
1.53958E-6	-75.318004
1.539625E-6	-70.921589
1.53967E-6	-68.661419
1.539715E-6	-67.780644
1.53976E-6	-67.584535
1.539805E-6	-67.557229
1.53985E-6	-67.659892
1.539895E-6	-67.577071
1.53994E-6	-67.749493
1.539985E-6	-68.78112
1.54003E-6	-71.222832
1.540075E-6	-75.421181
1.54012E-6	-79.226321
1.540165E-6	-80.263642
1.54021E-6	-81.178741
1.540255E-6	-78.944898
1.5403E-6	-73.051317
1.540345E-6	-62.373214
1.54039E-6	-47.135435
1.540435E-6	-39.570309
1.54048E-6	-36.983191
1.540525E-6	-36.256183
1.54057E-6	-36.099485
1.540615E-6	-36.022337
1.54066E-6	-36.003263
1.540705E-6	-36.300424
1.54075E-6	-38.027194
1.540795E-6	-42.573534
1.54084E-6	-51.580777
1.540885E-6	-62.372464
1.54093E-6	-68.833923
1.540975E-6	-74.332091
1.54102E-6	-78.563608
1.541065E-6	-79.673812
1.54111E-6	-79.108016
1.541155E-6	-75.929492
1.5412E-6	-70.902301
1.541245E-6	-68.250684
1.54129E-6	-67.269987
1.541335E-6	-67.009287
1.54138E-6	-67.053134
1.541425E-6	-67.018021
1.54147E-6	-66.948637
1.541515E-6	-67.173779
1.54156E-6	-67.891466
1.541605E-6	-69.854795
1.54165E-6	-73.838397
1.541695E-6	-78.434508
1.54174E-6	-80.793029
1.541785E-6	-80.460954
1.54183E-6	-78.931295
1.541875E-6	-73.972891
1.54192E-6	-65.148467
1.541965E-6	-49.139963
1.54201E-6	-40.185892
1.542055E-6	-37.171514
1.5421E-6	-36.236056
1.542145E-6	-36.088884
1.54219E-6	-35.991168
1.542235E-6	-35.943122
1.54228E-6	-36.085356
1.542325E-6	-37.297871
1.54237E-6	-41.023179
1.542415E-6	-49.295927
1.54246E-6	-59.821323
1.542505E-6	-66.836102
1.54255E-6	-72.615366
1.542595E-6	-77.121983
1.54264E-6	-79.578184
1.542685E-6	-80.858156
1.54273E-6	-78.116341
1.542775E-6	-71.385253
1.54282E-6	-68.178708
1.542865E-6	-66.863437
1.54291E-6	-66.593576
1.542955E-6	-66.560009
1.543E-6	-66.583677
1.543045E-6	-66.552149
1.54309E-6	-66.571827
1.543135E-6	-67.064165
1.54318E-6	-69.069287
1.543225E-6	-72.270918
1.54327E-6	-77.126462
1.543315E-6	-80.444084
1.54336E-6	-81.076827
1.543405E-6	-79.550685
1.54345E-6	-75.568935
1.543495E-6	-68.92112
1.54354E-6	-53.001623
1.543585E-6	-41.909793
1.54363E-6	-37.880789
1.543675E-6	-36.399749
1.54372E-6	-36.117211
1.543765E-6	-36.055483
1.54381E-6	-36.004993
1.543855E-6	-36.074789
1.5439E-6	-36.804776
1.543945E-6	-39.578184
1.54399E-6	-46.263525
1.544035E-6	-56.829819
1.54408E-6	-64.595454
1.544125E-6	-71.076827
1.54417E-6	-76.773673
1.544215E-6	-78.85389
1.54426E-6	-80.286778
1.544305E-6	-79.266483
1.54435E-6	-72.612987
1.544395E-6	-68.610661
1.54444E-6	-66.679657
1.544485E-6	-66.307841
1.54453E-6	-66.265363
1.544575E-6	-66.261689
1.54462E-6	-66.226937
1.544665E-6	-66.289321
1.54471E-6	-66.518899
1.544755E-6	-67.806775
1.5448E-6	-70.55468
1.544845E-6	-75.533075
1.54489E-6	-79.30702
1.544935E-6	-81.27203
1.54498E-6	-80.245682
1.545025E-6	-77.230789
1.54507E-6	-71.247651
1.545115E-6	-58.53252
1.54516E-6	-44.018664
1.545205E-6	-38.758219
1.54525E-6	-36.627405
1.545295E-6	-36.151092
1.54534E-6	-36.066003
1.545385E-6	-36.062494
1.54543E-6	-36.062494
1.545475E-6	-36.418747
1.54552E-6	-38.353498
1.545565E-6	-43.330143
1.54561E-6	-52.478747
1.545655E-6	-61.357263
1.5457E-6	-69.515582
1.545745E-6	-75.05428
1.54579E-6	-78.437538
1.545835E-6	-80.31237
1.54588E-6	-79.08333
1.545925E-6	-74.959371
1.54597E-6	-69.93962
1.546015E-6	-67.137681
1.54606E-6	-66.280091
1.546105E-6	-66.176227
1.54615E-6	-66.08712
1.546195E-6	-66.110112
1.54624E-6	-66.076548
1.546285E-6	-66.161846
1.54633E-6	-66.978856
1.546375E-6	-69.28118
1.54642E-6	-73.086532
1.546465E-6	-78.032713
1.54651E-6	-80.185892
1.546555E-6	-80.010436
1.5466E-6	-79.677843
1.546645E-6	-74.231981
1.54669E-6	-65.58462
1.546735E-6	-49.905491
1.54678E-6	-40.544822
1.546825E-6	-37.32359
1.54687E-6	-36.280091
1.546915E-6	-36.094181
1.54696E-6	-36.066003
1.547005E-6	-36.067759
1.54705E-6	-36.163641
1.547095E-6	-37.205612
1.54714E-6	-40.543345
1.547185E-6	-48.204482
1.54723E-6	-58.85389
1.547275E-6	-66.104795
1.54732E-6	-72.436682
1.547365E-6	-77.520267
1.54741E-6	-79.093893
1.547455E-6	-79.796387
1.5475E-6	-77.055338
1.547545E-6	-71.590162
1.54759E-6	-68.032713
1.547635E-6	-66.472388
1.54768E-6	-66.106567
1.547725E-6	-65.991168
1.54777E-6	-66.032777
1.547815E-6	-66.076548
1.54786E-6	-66.003263
1.547905E-6	-66.495581
1.54795E-6	-68.068754
1.547995E-6	-70.996875
1.54804E-6	-76.013657
1.548085E-6	-79.430951
1.54813E-6	-81.31826
1.548175E-6	-80.475466
1.54822E-6	-76.701955
1.548265E-6	-70.783135
1.54831E-6	-56.641411
1.548355E-6	-43.529106
1.5484E-6	-38.579235
1.548445E-6	-36.617428
1.54849E-6	-36.158259
1.548535E-6	-36.078309
1.54858E-6	-36.07303
1.548625E-6	-36.099485
1.54867E-6	-36.522798
1.548715E-6	-38.517059
1.54876E-6	-43.645163
1.548805E-6	-53.34419
1.54885E-6	-61.744441
1.548895E-6	-69.0309
1.54894E-6	-75.040396
1.548985E-6	-78.732194
1.54903E-6	-79.804683
1.549075E-6	-79.681877
1.54912E-6	-74.537042
1.549165E-6	-69.779843
1.54921E-6	-67.061956
1.549255E-6	-66.239708
1.5493E-6	-66.111886
1.549345E-6	-66.069515
1.54939E-6	-66.069515
1.549435E-6	-66.07303
1.54948E-6	-66.127882
1.549525E-6	-66.842395
1.54957E-6	-69.208188
1.549615E-6	-72.786016
1.54966E-6	-77.78325
1.549705E-6	-80.03182
1.54975E-6	-80.736061
1.549795E-6	-79.909743
1.54984E-6	-74.949858
1.549885E-6	-66.629403
1.54993E-6	-51.05075
1.549975E-6	-40.970186
1.55002E-6	-37.4958
1.550065E-6	-36.341378
1.55011E-6	-36.183435
1.550155E-6	-36.147513
1.5502E-6	-36.133227
1.550245E-6	-36.165437
1.55029E-6	-36.88458
1.550335E-6	-39.746941
1.55038E-6	-46.605486
1.550425E-6	-57.363639
1.55047E-6	-64.728859
1.550515E-6	-71.386448
1.55056E-6	-76.581699
1.550605E-6	-79.496202
1.55065E-6	-80.199966
1.550695E-6	-79.100949
1.55074E-6	-72.366469
1.550785E-6	-68.383326
1.55083E-6	-66.511113
1.550875E-6	-66.083593
1.55092E-6	-65.973948
1.550965E-6	-65.951663
1.55101E-6	-65.912514
1.551055E-6	-66.008457
1.5511E-6	-66.223296
1.551145E-6	-67.373117
1.55119E-6	-70.042332
1.551235E-6	-75.108856
1.55128E-6	-78.748442
1.551325E-6	-80.269184
1.55137E-6	-79.846402
1.551415E-6	-78.303256
1.55146E-6	-72.856702
1.551505E-6	-62.227907
1.55155E-6	-46.948637
1.551595E-6	-39.519468
1.55164E-6	-36.93575
1.551685E-6	-36.241536
1.55173E-6	-36.138579
1.551775E-6	-36.099485
1.55182E-6	-36.071273
1.551865E-6	-36.216021
1.55191E-6	-37.68021
1.551955E-6	-41.656429
1.552E-6	-49.641702
1.552045E-6	-60.663609
1.55209E-6	-67.632109
1.552135E-6	-73.464016
1.55218E-6	-78.052082
1.552225E-6	-79.430951
1.55227E-6	-79.982663
1.552315E-6	-76.480105
1.55236E-6	-70.841255
1.552405E-6	-67.258422
1.55245E-6	-66.185239
1.552495E-6	-65.851937
1.55254E-6	-65.823623
1.552585E-6	-65.835259
1.55263E-6	-65.830268
1.552675E-6	-65.887171
1.55272E-6	-66.265363
1.552765E-6	-68.005191
1.55281E-6	-71.235512
1.552855E-6	-76.455074
1.5529E-6	-79.480761
1.552945E-6	-80.960423
1.55299E-6	-79.922522
1.553035E-6	-76.685727
1.55308E-6	-70.021333
1.553125E-6	-55.752817
1.55317E-6	-42.870138
1.553215E-6	-38.193008
1.55326E-6	-36.414941
1.553305E-6	-36.041496
1.55335E-6	-35.979106
1.553395E-6	-35.927791
1.55344E-6	-35.914209
1.553485E-6	-36.328305
1.55353E-6	-38.407337
1.553575E-6	-43.425617
1.55362E-6	-52.782718
1.553665E-6	-61.281936
1.55371E-6	-69.30702
1.553755E-6	-74.699284
1.5538E-6	-78.06319
1.553845E-6	-79.637705
1.55389E-6	-79.694003
1.553935E-6	-74.366376
1.55398E-6	-69.366666
1.554025E-6	-66.635403
1.55407E-6	-65.883803
1.554115E-6	-65.725139
1.55416E-6	-65.694412
1.554205E-6	-65.687971
1.55425E-6	-65.665502
1.554295E-6	-65.686362
1.55434E-6	-66.428277
1.554385E-6	-68.416375
1.55443E-6	-72.021095
1.554475E-6	-77.554755
1.55452E-6	-80.501223
1.554565E-6	-80.919441
1.55461E-6	-80.13273
1.554655E-6	-75.132862
1.5547E-6	-68.365404
1.554745E-6	-52.58612
1.55479E-6	-41.55958
1.554835E-6	-37.659892
1.55488E-6	-36.382722
1.554925E-6	-36.078309
1.55497E-6	-36.010189
1.555015E-6	-36.001533
1.55506E-6	-36.017127
1.555105E-6	-36.558043
1.55515E-6	-38.972234
1.555195E-6	-44.861168
1.55524E-6	-55.122961
1.555285E-6	-63.133637
1.55533E-6	-69.969705
1.555375E-6	-76.14215
1.55542E-6	-78.827287
1.555465E-6	-80.00391
1.55551E-6	-79.434763
1.555555E-6	-73.126494
1.5556E-6	-68.71924
1.555645E-6	-66.309698
1.55569E-6	-65.617742
1.555735E-6	-65.592483
1.55578E-6	-65.514483
1.555825E-6	-65.472938
1.55587E-6	-65.488278
1.555915E-6	-65.632015
1.55596E-6	-66.414941
1.556005E-6	-68.884015
1.55605E-6	-72.890369
1.556095E-6	-77.817271
1.55614E-6	-79.694003
1.556185E-6	-80.195875
1.55623E-6	-79.825493
1.556275E-6	-74.629369
1.55632E-6	-66.26904
1.556365E-6	-50.505612
1.55641E-6	-40.872467
1.556455E-6	-37.363639
1.5565E-6	-36.26904
1.556545E-6	-36.032777
1.55659E-6	-36.008457
1.556635E-6	-36.006725
1.55668E-6	-36.038007
1.556725E-6	-36.744843
1.55677E-6	-39.453869
1.556815E-6	-46.095948
1.55686E-6	-56.556077
1.556905E-6	-64.225082
1.55695E-6	-70.75514
1.556995E-6	-76.420652
1.55704E-6	-79.641702
1.557085E-6	-79.621752
1.55713E-6	-79.35542
1.557175E-6	-72.731913
1.55722E-6	-68.300318
1.557265E-6	-66.20332
1.55731E-6	-65.652715
1.557355E-6	-65.497509
1.5574E-6	-65.514483
1.557445E-6	-65.556429
1.55749E-6	-65.537736
1.557535E-6	-65.683147
1.55758E-6	-66.613443
1.557625E-6	-69.20457
1.55767E-6	-73.341377
1.557715E-6	-77.888795
1.55776E-6	-80.399575
1.557805E-6	-80.702236
1.55785E-6	-79.048306
1.557895E-6	-74.097156
1.55794E-6	-65.611413
1.557985E-6	-49.969705
1.55803E-6	-40.614302
1.558075E-6	-37.267672
1.55812E-6	-36.154674
1.558165E-6	-35.96022
1.55821E-6	-35.961934
1.558255E-6	-35.975667
1.5583E-6	-36.06074
1.558345E-6	-36.869769
1.55839E-6	-39.783973
1.558435E-6	-46.697892
1.55848E-6	-57.015836
1.558525E-6	-64.502613
1.55857E-6	-71.189579
1.558615E-6	-76.538427
1.55866E-6	-79.519468
1.558705E-6	-80.289098
1.55875E-6	-79.698052
1.558795E-6	-72.928558
1.55884E-6	-68.492436
1.558885E-6	-66.259853
1.55893E-6	-65.823623
1.558975E-6	-65.721894
1.55902E-6	-65.777385
1.559065E-6	-65.880438
1.55911E-6	-65.805399
1.559155E-6	-65.875395
1.5592E-6	-66.867657
1.559245E-6	-69.590023
1.55929E-6	-73.478504
1.559335E-6	-79.0309
1.55938E-6	-80.080212
1.559425E-6	-81.222832
1.55947E-6	-79.681877
1.559515E-6	-74.104972
1.55956E-6	-65.792194
1.559605E-6	-50.017407
1.55965E-6	-40.762898
1.559695E-6	-37.420815
1.55974E-6	-36.373291
1.559785E-6	-36.225116
1.55983E-6	-36.239708
1.559875E-6	-36.287474
1.55992E-6	-36.378947
1.559965E-6	-37.160207
1.56001E-6	-40.039702
1.560055E-6	-46.759234
1.5601E-6	-57.251497
1.560145E-6	-64.863829
1.56019E-6	-71.339491
1.560235E-6	-76.769543
1.56028E-6	-79.344203
1.560325E-6	-80.998514
1.56037E-6	-79.251836
1.560415E-6	-73.409399
1.56046E-6	-69.097419
1.560505E-6	-66.907958
1.56055E-6	-66.392173
1.560595E-6	-66.302277
1.56064E-6	-66.274562
1.560685E-6	-66.258017
1.56073E-6	-66.305986
1.560775E-6	-66.394066
1.56082E-6	-67.356545
1.560865E-6	-69.492337
1.56091E-6	-74.038429
1.560955E-6	-79.186527
1.561E-6	-80.785216
1.561045E-6	-81.515645
1.56109E-6	-81.658973
1.561135E-6	-82.071882
1.56118E-6	-81.04688
1.561225E-6	-74.145393
1.56127E-6	-69.609827
1.561315E-6	-67.356545
1.56136E-6	-66.720284
1.561405E-6	-66.625407
1.56145E-6	-66.647427
1.561495E-6	-66.657474
1.56154E-6	-66.675615
1.561585E-6	-66.792308
1.56163E-6	-67.599502
1.561675E-6	-69.681877
1.56172E-6	-73.731466
1.561765E-6	-78.823973
1.56181E-6	-81.539723
1.561855E-6	-82.594794
1.5619E-6	-81.988708
1.561945E-6	-81.687063
1.56199E-6	-80.537443
1.562035E-6	-75.003129
1.56208E-6	-70.433034
1.562125E-6	-68.029953
1.56217E-6	-67.221617
1.562215E-6	-67.033348
1.56226E-6	-67.108572
1.562305E-6	-67.07301
1.56235E-6	-67.117508
1.562395E-6	-67.205612
1.56244E-6	-67.910215
1.562485E-6	-69.75925
1.56253E-6	-73.824755
1.562575E-6	-78.401322
1.56262E-6	-81.584528
1.562665E-6	-81.854195
1.56271E-6	-83.000756
1.562755E-6	-81.572036
1.5628E-6	-81.500281
1.562845E-6	-76.261689
1.56289E-6	-71.042461
1.562935E-6	-68.535619
1.56298E-6	-67.664962
1.563025E-6	-67.527635
1.56307E-6	-67.564659
1.563115E-6	-67.552282
1.56316E-6	-67.647241
1.563205E-6	-67.649768
1.56325E-6	-68.306195
1.563295E-6	-70.135418
1.56334E-6	-73.674415
1.563385E-6	-78.910969
1.56343E-6	-81.426072
1.563475E-6	-82.245352
1.56352E-6	-82.79262
1.563565E-6	-82.493374
1.56361E-6	-81.531682
1.563655E-6	-78.158766
1.5637E-6	-72.222833
1.563745E-6	-69.329291
1.56379E-6	-68.353498
1.563835E-6	-68.173001
1.56388E-6	-68.099486
1.563925E-6	-68.167302
1.56397E-6	-68.193008
1.564015E-6	-68.253588
1.56406E-6	-68.610661
1.564105E-6	-70.141246
1.56415E-6	-73.687592
1.564195E-6	-79.093893
1.56424E-6	-81.107543
1.564285E-6	-82.439728
1.56433E-6	-82.332898
1.564375E-6	-82.191069
1.56442E-6	-83.338566
1.564465E-6	-78.944898
1.56451E-6	-73.21846
1.564555E-6	-70.2365
1.5646E-6	-69.034376
1.564645E-6	-68.722475
1.56469E-6	-68.748442
1.564735E-6	-68.800846
1.56478E-6	-68.814046
1.564825E-6	-68.860566
1.56487E-6	-69.147094
1.564915E-6	-70.487111
1.56496E-6	-73.675427
1.565005E-6	-78.074325
1.56505E-6	-80.462886
1.565095E-6	-82.763802
1.56514E-6	-83.201181
1.565185E-6	-82.464935
1.56523E-6	-82.786016
1.565275E-6	-80.063874
1.56532E-6	-74.248122
1.565365E-6	-71.103062
1.56541E-6	-69.673812
1.565455E-6	-69.366666
1.5655E-6	-69.314431
1.565545E-6	-69.41574
1.56559E-6	-69.442395
1.565635E-6	-69.476909
1.56568E-6	-70.076674
1.565725E-6	-70.750491
1.56577E-6	-73.900856
1.565815E-6	-77.835702
1.56586E-6	-78.08549
1.565905E-6	-82.322506
1.56595E-6	-82.143855
1.565995E-6	-82.992963
1.56604E-6	-84.129629
1.566085E-6	-81.041356
1.56613E-6	-76.124322
1.566175E-6	-72.27385
1.56622E-6	-70.51196
1.566265E-6	-70.036635
1.56631E-6	-70.415795
1.566355E-6	-70.063434
1.5664E-6	-69.842212
1.566445E-6	-70.063434
1.56649E-6	-70.291884
1.566535E-6	-71.140737
1.56658E-6	-73.607128
1.566625E-6	-77.361273
1.56667E-6	-80.620811
1.566715E-6	-83.349822
1.56676E-6	-83.294758
1.566805E-6	-82.215593
1.56685E-6	-82.398038
1.566895E-6	-81.398417
1.56694E-6	-77.92635
1.566985E-6	-73.396089
1.56703E-6	-71.328272
1.567075E-6	-70.669178
1.56712E-6	-70.617806
1.567165E-6	-70.74327
1.56721E-6	-70.844946
1.567255E-6	-70.811313
1.5673E-6	-70.847585
1.567345E-6	-71.567672
1.56739E-6	-73.794476
1.567435E-6	-77.020208
1.56748E-6	-80.332015
1.567525E-6	-82.61378
1.56757E-6	-82.42604
1.567615E-6	-82.598743
1.56766E-6	-83.029451
1.567705E-6	-81.854195
1.56775E-6	-79.609827
1.567795E-6	-74.364003
1.56784E-6	-72.194667
1.567885E-6	-71.502736
1.56793E-6	-71.405014
1.567975E-6	-71.350145
1.56802E-6	-71.239554
1.568065E-6	-71.472761
1.56811E-6	-71.505192
1.568155E-6	-72.140299
1.5682E-6	-73.701828
1.568245E-6	-77.059749
1.56829E-6	-79.913998
1.568335E-6	-82.814983
1.56838E-6	-82.353009
1.568425E-6	-82.713216
1.56847E-6	-83.429441
1.568515E-6	-82.965367
1.56856E-6	-80.094836
1.568605E-6	-75.845258
1.56865E-6	-73.398938
1.568695E-6	-72.320283
1.56874E-6	-71.9382
1.568785E-6	-72.067686
1.56883E-6	-72.159536
1.568875E-6	-72.17026
1.56892E-6	-72.051635
1.568965E-6	-72.535994
1.56901E-6	-73.907258
1.569055E-6	-76.534514
1.5691E-6	-80.399099
1.569145E-6	-81.949071
1.56919E-6	-83.630109
1.569235E-6	-83.347944
1.56928E-6	-82.882771
1.569325E-6	-83.038184
1.56937E-6	-81.823685
1.569415E-6	-77.057543
1.56946E-6	-74.093811
1.569505E-6	-72.943928
1.56955E-6	-72.604277
1.569595E-6	-72.275316
1.56964E-6	-72.625688
1.569685E-6	-72.584545
1.56973E-6	-72.674454
1.569775E-6	-73.345128
1.56982E-6	-73.959901
1.569865E-6	-76.313413
1.56991E-6	-79.465374
1.569955E-6	-81.922621
1.57E-6	-84.397346
