Wavelength (nm)	Power (dBm)
1.525E-6	-88.021683
1.525045E-6	-85.082182
1.52509E-6	-86.722325
1.525135E-6	-88.523237
1.52518E-6	-90.335767
1.525225E-6	-120
1.52527E-6	-90.019587
1.525315E-6	-96.013657
1.52536E-6	-93.430398
1.525405E-6	-94.31329
1.52545E-6	-91.272612
1.525495E-6	-120
1.52554E-6	-87.396901
1.525585E-6	-85.720273
1.52563E-6	-86.088884
1.525675E-6	-88.900841
1.52572E-6	-84.316809
1.525765E-6	-83.863696
1.52581E-6	-83.987007
1.525855E-6	-86.158259
1.5259E-6	-85.110265
1.525945E-6	-90.48177
1.52599E-6	-120
1.526035E-6	-99.645703
1.52608E-6	-90.747911
1.526125E-6	-92.21487
1.52617E-6	-120
1.526215E-6	-120
1.52626E-6	-99.767475
1.526305E-6	-84.752146
1.52635E-6	-86.004993
1.526395E-6	-83.475603
1.52644E-6	-82.89375
1.526485E-6	-83.976144
1.52653E-6	-82.716462
1.526575E-6	-82.620127
1.52662E-6	-84.128505
1.526665E-6	-84.270123
1.52671E-6	-87.07301
1.526755E-6	-88.703101
1.5268E-6	-100.616304
1.526845E-6	-120
1.52689E-6	-120
1.526935E-6	-90.663609
1.52698E-6	-120
1.527025E-6	-120
1.52707E-6	-87.765041
1.527115E-6	-84.05497
1.52716E-6	-81.955879
1.527205E-6	-82.718086
1.52725E-6	-81.526742
1.527295E-6	-82.558635
1.52734E-6	-82.359734
1.527385E-6	-80.50171
1.52743E-6	-82.028017
1.527475E-6	-84.78339
1.52752E-6	-88.356471
1.527565E-6	-89.215432
1.52761E-6	-120
1.527655E-6	-95.741399
1.5277E-6	-94.584208
1.527745E-6	-120
1.52779E-6	-120
1.527835E-6	-87.639669
1.52788E-6	-82.654402
1.527925E-6	-81.836924
1.52797E-6	-82.126104
1.528015E-6	-81.158279
1.52806E-6	-80.540885
1.528105E-6	-80.964759
1.52815E-6	-80.311436
1.528195E-6	-81.101383
1.52824E-6	-82.625688
1.528285E-6	-90.05287
1.52833E-6	-92.722961
1.528375E-6	-90.512937
1.52842E-6	-120
1.528465E-6	-120
1.52851E-6	-99.767475
1.528555E-6	-120
1.5286E-6	-87.637147
1.528645E-6	-83.649186
1.52869E-6	-81.696038
1.528735E-6	-79.645703
1.52878E-6	-80.438316
1.528825E-6	-80.140798
1.52887E-6	-80.347042
1.528915E-6	-79.884296
1.52896E-6	-80.354575
1.529005E-6	-82.077484
1.52905E-6	-85.300308
1.529095E-6	-88.038238
1.52914E-6	-93.408447
1.529185E-6	-120
1.52923E-6	-90.089956
1.529275E-6	-120
1.52932E-6	-98.87395
1.529365E-6	-91.562068
1.52941E-6	-84.219341
1.529455E-6	-81.256922
1.5295E-6	-79.918258
1.529545E-6	-79.457701
1.52959E-6	-80.093948
1.529635E-6	-79.665762
1.52968E-6	-79.673812
1.529725E-6	-79.689957
1.52977E-6	-80.176383
1.529815E-6	-82.688143
1.52986E-6	-89.222688
1.529905E-6	-120
1.52995E-6	-96.414941
1.529995E-6	-102.316579
1.53004E-6	-91.429088
1.530085E-6	-120
1.53013E-6	-120
1.530175E-6	-85.646335
1.53022E-6	-81.89633
1.530265E-6	-79.476909
1.53031E-6	-79.28118
1.530355E-6	-79.179331
1.5304E-6	-79.714287
1.530445E-6	-79.248181
1.53049E-6	-79.161392
1.530535E-6	-79.434763
1.53058E-6	-80.839147
1.530625E-6	-86.230582
1.53067E-6	-88.840568
1.530715E-6	-120
1.53076E-6	-120
1.530805E-6	-94.951215
1.53085E-6	-120
1.530895E-6	-120
1.53094E-6	-87.920965
1.530985E-6	-82.322506
1.53103E-6	-80.453716
1.531075E-6	-78.85389
1.53112E-6	-78.968807
1.531165E-6	-78.585502
1.53121E-6	-79.058784
1.531255E-6	-79.233596
1.5313E-6	-79.366666
1.531345E-6	-80.007824
1.53139E-6	-82.670436
1.531435E-6	-87.50557
1.53148E-6	-120
1.531525E-6	-120
1.53157E-6	-120
1.531615E-6	-120
1.53166E-6	-120
1.531705E-6	-89.476909
1.53175E-6	-83.745846
1.531795E-6	-81.233204
1.53184E-6	-79.706162
1.531885E-6	-79.41574
1.53193E-6	-78.992849
1.531975E-6	-78.87395
1.53202E-6	-78.989406
1.532065E-6	-79.168559
1.53211E-6	-80.084638
1.532155E-6	-82.478747
1.5322E-6	-86.907958
1.532245E-6	-106.994045
1.53229E-6	-120
1.532335E-6	-120
1.53238E-6	-82.61378
1.532425E-6	-120
1.53247E-6	-95.752817
1.532515E-6	-85.627252
1.53256E-6	-81.773743
1.532605E-6	-79.804683
1.53265E-6	-79.763361
1.532695E-6	-79.377942
1.53274E-6	-79.292235
1.532785E-6	-79.186527
1.53283E-6	-79.411945
1.532875E-6	-79.621752
1.53292E-6	-81.230897
1.532965E-6	-84.788619
1.53301E-6	-92.543788
1.533055E-6	-92.551596
1.5331E-6	-120
1.533145E-6	-89.003194
1.53319E-6	-94.606729
1.533235E-6	-91.715979
1.53328E-6	-95.482136
1.533325E-6	-83.383766
1.53337E-6	-80.678815
1.533415E-6	-79.978339
1.53346E-6	-79.492337
1.533505E-6	-79.637705
1.53355E-6	-79.867413
1.533595E-6	-79.710223
1.53364E-6	-80.090842
1.533685E-6	-81.164521
1.53373E-6	-83.394191
1.533775E-6	-85.094797
1.53382E-6	-120
1.533865E-6	-120
1.53391E-6	-90.363538
1.533955E-6	-120
1.534E-6	-120
1.534045E-6	-92.087305
1.53409E-6	-86.996219
1.534135E-6	-82.892059
1.53418E-6	-80.642913
1.534225E-6	-80.937727
1.53427E-6	-80.884695
1.534315E-6	-80.448898
1.53436E-6	-80.153377
1.534405E-6	-80.141246
1.53445E-6	-80.875654
1.534495E-6	-82.372464
1.53454E-6	-87.634627
1.534585E-6	-90.305375
1.53463E-6	-95.699249
1.534675E-6	-91.101942
1.53472E-6	-93.944795
1.534765E-6	-120
1.53481E-6	-120
1.534855E-6	-120
1.5349E-6	-84.233132
1.534945E-6	-82.295899
1.53499E-6	-81.681302
1.535035E-6	-80.575455
1.53508E-6	-80.5611
1.535125E-6	-80.805035
1.53517E-6	-81.516261
1.535215E-6	-81.539104
1.53526E-6	-81.856858
1.535305E-6	-84.992148
1.53535E-6	-85.169836
1.535395E-6	-92.469534
1.53544E-6	-93.133637
1.535485E-6	-120
1.53553E-6	-120
1.535575E-6	-95.743028
1.53562E-6	-120
1.535665E-6	-86.352614
1.53571E-6	-83.996807
1.535755E-6	-81.7829
1.5358E-6	-81.315319
1.535845E-6	-81.288943
1.53589E-6	-81.790764
1.535935E-6	-81.908445
1.53598E-6	-82.529768
1.536025E-6	-82.143855
1.53607E-6	-84.329736
1.536115E-6	-87.515363
1.53616E-6	-90.535477
1.536205E-6	-120
1.53625E-6	-120
1.536295E-6	-104.568014
1.53634E-6	-93.088301
1.536385E-6	-88.671002
1.53643E-6	-120
1.536475E-6	-86.205132
1.53652E-6	-83.212996
1.536565E-6	-82.734358
1.53661E-6	-81.672357
1.536655E-6	-82.436682
1.5367E-6	-82.251182
1.536745E-6	-83.633116
1.53679E-6	-82.500319
1.536835E-6	-83.143478
1.53688E-6	-85.03901
1.536925E-6	-92.084497
1.53697E-6	-91.487417
1.537015E-6	-96.548224
1.53706E-6	-120
1.537105E-6	-93.816381
1.53715E-6	-100.505124
1.537195E-6	-120
1.53724E-6	-92.167398
1.537285E-6	-86.078309
1.53733E-6	-83.702847
1.537375E-6	-82.926002
1.53742E-6	-83.380927
1.537465E-6	-81.617808
1.53751E-6	-82.592427
1.537555E-6	-84.524714
1.5376E-6	-82.723774
1.537645E-6	-85.16698
1.53769E-6	-90.139452
1.537735E-6	-120
1.53778E-6	-120
1.537825E-6	-97.840982
1.53787E-6	-120
1.537915E-6	-120
1.53796E-6	-107.187393
1.538005E-6	-93.602148
1.53805E-6	-85.741399
1.538095E-6	-84.599209
1.53814E-6	-83.581295
1.538185E-6	-82.990368
1.53823E-6	-82.685724
1.538275E-6	-85.335773
1.53832E-6	-83.637127
1.538365E-6	-81.952474
1.53841E-6	-83.912601
1.538455E-6	-88.677403
1.5385E-6	-120
1.538545E-6	-92.323989
1.53859E-6	-97.833064
1.538635E-6	-120
1.53868E-6	-120
1.538725E-6	-93.427529
1.53877E-6	-120
1.538815E-6	-88.934691
1.53886E-6	-84.66355
1.538905E-6	-84.278257
1.53895E-6	-83.478504
1.538995E-6	-83.421795
1.53904E-6	-83.706924
1.539085E-6	-83.706924
1.53913E-6	-83.270713
1.539175E-6	-84.409317
1.53922E-6	-85.16698
1.539265E-6	-88.761484
1.53931E-6	-91.641193
1.539355E-6	-95.145625
1.5394E-6	-120
1.539445E-6	-120
1.53949E-6	-120
1.539535E-6	-120
1.53958E-6	-90.244763
1.539625E-6	-85.590909
1.53967E-6	-85.516029
1.539715E-6	-82.206922
1.53976E-6	-82.765443
1.539805E-6	-82.043285
1.53985E-6	-82.31214
1.539895E-6	-83.180355
1.53994E-6	-82.376216
1.539985E-6	-82.582183
1.54003E-6	-85.73977
1.540075E-6	-86.706021
1.54012E-6	-92.186755
1.540165E-6	-99.500071
1.54021E-6	-100.625824
1.540255E-6	-102.89798
1.5403E-6	-87.9588
1.540345E-6	-120
1.54039E-6	-87.059749
1.540435E-6	-85.415132
1.54048E-6	-83.818473
1.540525E-6	-82.001772
1.54057E-6	-81.602078
1.540615E-6	-81.940915
1.54066E-6	-82.483361
1.540705E-6	-82.995559
1.54075E-6	-82.454223
1.540795E-6	-83.737623
1.54084E-6	-86.663512
1.540885E-6	-120
1.54093E-6	-87.996968
1.540975E-6	-120
1.54102E-6	-120
1.541065E-6	-120
1.54111E-6	-120
1.541155E-6	-88.53872
1.5412E-6	-89.779843
1.541245E-6	-84.426131
1.54129E-6	-83.031196
1.541335E-6	-81.886932
1.54138E-6	-81.778973
1.541425E-6	-82.546909
1.54147E-6	-82.551596
1.541515E-6	-82.718898
1.54156E-6	-83.754085
1.541605E-6	-84.956651
1.54165E-6	-87.18285
1.541695E-6	-120
1.54174E-6	-91.49415
1.541785E-6	-89.50782
1.54183E-6	-120
1.541875E-6	-120
1.54192E-6	-99.175737
1.541965E-6	-94.558079
1.54201E-6	-86.001533
1.542055E-6	-82.789317
1.5421E-6	-82.153827
1.542145E-6	-81.418239
1.54219E-6	-82.979143
1.542235E-6	-82.027325
1.54228E-6	-82.913242
1.542325E-6	-82.312879
1.54237E-6	-82.66161
1.542415E-6	-85.225893
1.54246E-6	-92.086603
1.542505E-6	-120
1.54255E-6	-120
1.542595E-6	-95.353614
1.54264E-6	-120
1.542685E-6	-120
1.54273E-6	-120
1.542775E-6	-88.613816
1.54282E-6	-82.621715
1.542865E-6	-82.873503
1.54291E-6	-81.853529
1.542955E-6	-81.69668
1.543E-6	-81.277854
1.543045E-6	-81.082953
1.54309E-6	-81.177602
1.543135E-6	-82.479516
1.54318E-6	-83.182162
1.543225E-6	-88.315025
1.54327E-6	-120
1.543315E-6	-120
1.54336E-6	-95.353614
1.543405E-6	-120
1.54345E-6	-102.53833
1.543495E-6	-92.505729
1.54354E-6	-91.529211
1.543585E-6	-89.500071
1.54363E-6	-82.508823
1.543675E-6	-81.464843
1.54372E-6	-81.275524
1.543765E-6	-82.364971
1.54381E-6	-81.969528
1.543855E-6	-82.224282
1.5439E-6	-81.378686
1.543945E-6	-83.879583
1.54399E-6	-85.841923
1.544035E-6	-87.488487
1.54408E-6	-120
1.544125E-6	-120
1.54417E-6	-93.893398
1.544215E-6	-99.450041
1.54426E-6	-96.96372
1.544305E-6	-120
1.54435E-6	-84.404524
1.544395E-6	-84.364003
1.54444E-6	-82.0412
1.544485E-6	-81.202162
1.54453E-6	-81.541581
1.544575E-6	-80.959881
1.54462E-6	-81.427882
1.544665E-6	-81.345407
1.54471E-6	-81.317083
1.544755E-6	-83.565473
1.5448E-6	-86.057235
1.544845E-6	-87.23998
1.54489E-6	-92.492602
1.544935E-6	-114.930893
1.54498E-6	-88.449678
1.545025E-6	-89.037854
1.54507E-6	-84.327383
1.545115E-6	-69.918258
1.54516E-6	-55.168408
1.545205E-6	-49.362914
1.54525E-6	-46.920763
1.545295E-6	-46.283781
1.54534E-6	-46.205132
1.545385E-6	-46.174427
1.54543E-6	-46.163641
1.545475E-6	-46.489771
1.54552E-6	-48.239087
1.545565E-6	-52.789317
1.54561E-6	-60.962591
1.545655E-6	-70.612802
1.5457E-6	-78.857227
1.545745E-6	-82.25483
1.54579E-6	-87.283907
1.545835E-6	-96.798537
1.54588E-6	-90.528605
1.545925E-6	-98.87395
1.54597E-6	-87.207895
1.546015E-6	-81.937522
1.54606E-6	-81.390036
1.546105E-6	-81.132274
1.54615E-6	-81.147519
1.546195E-6	-81.540962
1.54624E-6	-81.664067
1.546285E-6	-80.854982
1.54633E-6	-81.89902
1.546375E-6	-83.041682
1.54642E-6	-88.507809
1.546465E-6	-120
1.54651E-6	-93.421795
1.546555E-6	-90.354575
1.5466E-6	-90.812883
1.546645E-6	-85.094797
1.54669E-6	-78.341624
1.546735E-6	-60.640395
1.54678E-6	-51.359638
1.546825E-6	-47.685304
1.54687E-6	-46.407338
1.546915E-6	-46.170829
1.54696E-6	-46.140364
1.547005E-6	-46.111886
1.54705E-6	-46.20332
1.547095E-6	-47.13319
1.54714E-6	-50.17955
1.547185E-6	-57.066374
1.54723E-6	-67.249191
1.547275E-6	-75.415132
1.54732E-6	-81.11259
1.547365E-6	-86.416844
1.54741E-6	-89.867413
1.547455E-6	-94.312118
1.5475E-6	-86.635403
1.547545E-6	-86.802695
1.54759E-6	-84.489161
1.547635E-6	-81.238977
1.54768E-6	-80.871936
1.547725E-6	-81.362609
1.54777E-6	-80.960965
1.547815E-6	-80.814455
1.54786E-6	-81.136785
1.547905E-6	-81.47581
1.54795E-6	-82.8208
1.547995E-6	-86.74074
1.54804E-6	-92.979143
1.548085E-6	-95.559552
1.54813E-6	-93.768541
1.548175E-6	-120
1.54822E-6	-91.547779
1.548265E-6	-82.876029
1.54831E-6	-68.867253
1.548355E-6	-54.46967
1.5484E-6	-48.979095
1.548445E-6	-46.699923
1.54849E-6	-46.133227
1.548535E-6	-46.044989
1.54858E-6	-46.018863
1.548625E-6	-46.080069
1.54867E-6	-46.522798
1.548715E-6	-48.71924
1.54876E-6	-53.558569
1.548805E-6	-61.591414
1.54885E-6	-70.879906
1.548895E-6	-79.08333
1.54894E-6	-84.958011
1.548985E-6	-89.457701
1.54903E-6	-89.270153
1.549075E-6	-91.05075
1.54912E-6	-89.838026
1.549165E-6	-84.743075
1.54921E-6	-82.105603
1.549255E-6	-82.323248
1.5493E-6	-80.904975
1.549345E-6	-80.895357
1.54939E-6	-81.024829
1.549435E-6	-81.548399
1.54948E-6	-81.735365
1.549525E-6	-81.629801
1.54957E-6	-82.990368
1.549615E-6	-87.775437
1.54966E-6	-93.73044
1.549705E-6	-90.758758
1.54975E-6	-88.579235
1.549795E-6	-90.156527
1.54984E-6	-86.753061
1.549885E-6	-79.118639
1.54993E-6	-61.425469
1.549975E-6	-51.588909
1.55002E-6	-47.726276
1.550065E-6	-46.362001
1.55011E-6	-46.094181
1.550155E-6	-46.046736
1.5502E-6	-46.053732
1.550245E-6	-46.104795
1.55029E-6	-46.920763
1.550335E-6	-49.685915
1.55038E-6	-56.482037
1.550425E-6	-65.579908
1.55047E-6	-74.127382
1.550515E-6	-80.31377
1.55056E-6	-85.678327
1.550605E-6	-93.139897
1.55065E-6	-91.070154
1.550695E-6	-120
1.55074E-6	-88.941493
1.550785E-6	-84.575481
1.55083E-6	-82.360482
1.550875E-6	-81.395422
1.55092E-6	-81.255762
1.550965E-6	-81.499667
1.55101E-6	-80.59932
1.551055E-6	-81.086298
1.5511E-6	-81.21823
1.551145E-6	-81.943632
1.55119E-6	-83.980486
1.551235E-6	-89.755143
1.55128E-6	-89.240882
1.551325E-6	-120
1.55137E-6	-105.855281
1.551415E-6	-90.535969
1.55146E-6	-89.633711
1.551505E-6	-120
1.55155E-6	-89.359166
1.551595E-6	-83.243133
1.55164E-6	-81.540342
1.551685E-6	-81.308857
1.55173E-6	-81.101383
1.551775E-6	-80.601813
1.55182E-6	-80.6778
1.551865E-6	-81.18102
1.55191E-6	-80.788339
1.551955E-6	-82.071882
1.552E-6	-83.380927
1.552045E-6	-105.178413
1.55209E-6	-92.774483
1.552135E-6	-89.775716
1.55218E-6	-120
1.552225E-6	-120
1.55227E-6	-105.025175
1.552315E-6	-99.237237
1.55236E-6	-85.62408
1.552405E-6	-82.428318
1.55245E-6	-81.238399
1.552495E-6	-80.987052
1.55254E-6	-81.048538
1.552585E-6	-80.552213
1.55263E-6	-80.671205
1.552675E-6	-81.417637
1.55272E-6	-80.735032
1.552765E-6	-82.860057
1.55281E-6	-86.216021
1.552855E-6	-120
1.5529E-6	-94.296906
1.552945E-6	-120
1.55299E-6	-120
1.553035E-6	-94.03953
1.55308E-6	-93.355461
1.553125E-6	-91.349553
1.55317E-6	-84.607984
1.553215E-6	-83.317073
1.55326E-6	-81.094672
1.553305E-6	-80.814455
1.55335E-6	-80.635365
1.553395E-6	-80.861332
1.55344E-6	-80.768078
1.553485E-6	-80.963675
1.55353E-6	-81.317083
1.553575E-6	-83.171332
1.55362E-6	-86.044989
1.553665E-6	-88.745187
1.55371E-6	-95.503673
1.553755E-6	-120
1.5538E-6	-101.019883
1.553845E-6	-100.568024
1.55389E-6	-91.591414
1.553935E-6	-100.410063
1.55398E-6	-84.963455
1.554025E-6	-83.343252
1.55407E-6	-81.214208
1.554115E-6	-80.843364
1.55416E-6	-80.765487
1.554205E-6	-80.490999
1.55425E-6	-80.548762
1.554295E-6	-81.235512
1.55434E-6	-81.009459
1.554385E-6	-83.628106
1.55443E-6	-84.834646
1.554475E-6	-103.121145
1.55452E-6	-120
1.554565E-6	-120
1.55461E-6	-120
1.554655E-6	-99.613798
1.5547E-6	-120
1.554745E-6	-120
1.55479E-6	-85.016894
1.554835E-6	-81.7993
1.55488E-6	-80.686947
1.554925E-6	-80.156527
1.55497E-6	-80.607804
1.555015E-6	-79.734667
1.55506E-6	-80.465303
1.555105E-6	-80.877248
1.55515E-6	-81.946351
1.555195E-6	-83.644157
1.55524E-6	-86.515004
1.555285E-6	-120
1.55533E-6	-90.006519
1.555375E-6	-92.269453
1.55542E-6	-120
1.555465E-6	-120
1.55551E-6	-89.742846
1.555555E-6	-87.028963
1.5556E-6	-83.43327
1.555645E-6	-81.108104
1.55569E-6	-80.91247
1.555735E-6	-80.112182
1.55578E-6	-80.51196
1.555825E-6	-80.475466
1.55587E-6	-80.69051
1.555915E-6	-79.986991
1.55596E-6	-80.91515
1.556005E-6	-82.376966
1.55605E-6	-88.887375
1.556095E-6	-93.071531
1.55614E-6	-120
1.556185E-6	-93.119363
1.55623E-6	-120
1.556275E-6	-95.474469
1.55632E-6	-87.318903
1.556365E-6	-90.582899
1.55641E-6	-83.301255
1.556455E-6	-80.466269
1.5565E-6	-81.020432
1.556545E-6	-80.965844
1.55659E-6	-80.078443
1.556635E-6	-80.411973
1.55668E-6	-80.353633
1.556725E-6	-80.537443
1.55677E-6	-80.31237
1.556815E-6	-83.379981
1.55686E-6	-84.012095
1.556905E-6	-91.895658
1.55695E-6	-120
1.556995E-6	-120
1.55704E-6	-120
1.557085E-6	-120
1.55713E-6	-120
1.557175E-6	-90.203606
1.55722E-6	-83.113133
1.557265E-6	-81.866859
1.55731E-6	-79.718356
1.557355E-6	-80.197693
1.5574E-6	-81.061273
1.557445E-6	-79.943906
1.55749E-6	-80.60331
1.557535E-6	-80.568024
1.55758E-6	-80.971272
1.557625E-6	-83.07682
1.55767E-6	-88.110715
1.557715E-6	-120
1.55776E-6	-120
1.557805E-6	-92.077484
1.55785E-6	-107.579558
1.557895E-6	-94.458744
1.55794E-6	-95.980827
1.557985E-6	-89.863203
1.55803E-6	-82.758061
1.558075E-6	-82.124687
1.55812E-6	-79.97402
1.558165E-6	-80.776379
1.55821E-6	-80.538426
1.558255E-6	-79.901244
1.5583E-6	-80.917831
1.558345E-6	-80.339991
1.55839E-6	-80.543837
1.558435E-6	-82.266525
1.55848E-6	-86.893067
1.558525E-6	-90.313303
1.55857E-6	-120
1.558615E-6	-90.94366
1.55866E-6	-103.592205
1.558705E-6	-96.188849
1.55875E-6	-120
1.558795E-6	-89.197344
1.55884E-6	-83.543813
1.558885E-6	-81.891628
1.55893E-6	-80.143939
1.558975E-6	-80.353162
1.55902E-6	-80.103722
1.559065E-6	-80.528605
1.55911E-6	-80.349865
1.559155E-6	-80.410541
1.5592E-6	-81.775704
1.559245E-6	-82.79758
1.55929E-6	-88.904215
1.559335E-6	-120
1.55938E-6	-96.876111
1.559425E-6	-120
1.55947E-6	-96.673596
1.559515E-6	-89.175737
1.55956E-6	-104.053865
1.559605E-6	-88.975663
1.55965E-6	-85.010006
1.559695E-6	-81.396021
1.55974E-6	-81.245914
1.559785E-6	-80.737605
1.55983E-6	-81.240132
1.559875E-6	-81.353703
1.55992E-6	-80.752556
1.559965E-6	-81.534155
1.56001E-6	-82.101374
1.560055E-6	-84.543219
1.5601E-6	-86.145725
1.560145E-6	-88.810742
1.56019E-6	-91.288943
1.560235E-6	-89.515582
1.56028E-6	-90.562582
1.560325E-6	-92.395021
1.56037E-6	-120
1.560415E-6	-88.187282
1.56046E-6	-88.645493
1.560505E-6	-82.898826
1.56055E-6	-80.884695
1.560595E-6	-81.508264
1.56064E-6	-80.702746
1.560685E-6	-81.004531
1.56073E-6	-81.187295
1.560775E-6	-80.88949
1.56082E-6	-81.02978
1.560865E-6	-85.108856
1.56091E-6	-87.430418
1.560955E-6	-91.225711
1.561E-6	-120
1.561045E-6	-120
1.56109E-6	-120
1.561135E-6	-91.915864
1.56118E-6	-120
1.561225E-6	-90.220936
1.56127E-6	-85.439378
1.561315E-6	-82.473371
1.56136E-6	-82.344059
1.561405E-6	-81.305336
1.56145E-6	-82.325473
1.561495E-6	-80.888424
1.56154E-6	-81.676188
1.561585E-6	-81.184442
1.56163E-6	-82.262867
1.561675E-6	-83.70081
1.56172E-6	-88.667805
1.561765E-6	-93.592205
1.56181E-6	-120
1.561855E-6	-120
1.5619E-6	-120
1.561945E-6	-100.317973
1.56199E-6	-96.210573
1.562035E-6	-89.288547
1.56208E-6	-85.929492
1.562125E-6	-82.683307
1.56217E-6	-82.468001
1.562215E-6	-83.114022
1.56226E-6	-82.238802
1.562305E-6	-81.796015
1.56235E-6	-81.783555
1.562395E-6	-81.988708
1.56244E-6	-82.197547
1.562485E-6	-85.364056
1.56253E-6	-91.680663
1.562575E-6	-94.833324
1.56262E-6	-93.072412
1.562665E-6	-120
1.56271E-6	-91.772437
1.562755E-6	-92.30475
1.5628E-6	-89.821323
1.562845E-6	-120
1.56289E-6	-88.560489
1.562935E-6	-83.940488
1.56298E-6	-82.494916
1.563025E-6	-85.520671
1.56307E-6	-79.329291
1.563115E-6	-82.247537
1.56316E-6	-81.77309
1.563205E-6	-81.370938
1.56325E-6	-83.39514
1.563295E-6	-83.304042
1.56334E-6	-89.347939
1.563385E-6	-120
1.56343E-6	-120
1.563475E-6	-120
1.56352E-6	-92.927706
1.563565E-6	-91.110347
1.56361E-6	-120
1.563655E-6	-87.614521
1.5637E-6	-120
1.563745E-6	-84.754741
1.56379E-6	-82.89375
1.563835E-6	-82.718086
1.56388E-6	-83.347944
1.563925E-6	-83.600158
1.56397E-6	-86.176227
1.564015E-6	-83.1078
1.56406E-6	-83.840499
1.564105E-6	-84.399738
1.56415E-6	-88.010681
1.564195E-6	-120
1.56424E-6	-120
1.564285E-6	-89.586073
1.56433E-6	-120
1.564375E-6	-83.212086
1.56442E-6	-120
1.564465E-6	-96.779876
1.56451E-6	-92.052332
1.564555E-6	-85.790546
1.5646E-6	-84.256214
1.564645E-6	-84.387793
1.56469E-6	-83.474636
1.564735E-6	-82.815814
1.56478E-6	-82.915791
1.564825E-6	-82.959353
1.56487E-6	-83.082115
1.564915E-6	-85.377518
1.56496E-6	-87.486051
1.565005E-6	-95.662302
1.56505E-6	-92.145278
1.565095E-6	-120
1.56514E-6	-120
1.565185E-6	-91.67555
1.56523E-6	-120
1.565275E-6	-95.427238
1.56532E-6	-95.667103
1.565365E-6	-86.196078
1.56541E-6	-84.712118
1.565455E-6	-85.663902
1.5655E-6	-85.171264
1.565545E-6	-84.256214
1.56559E-6	-84.48428
1.565635E-6	-85.254924
1.56568E-6	-84.109445
1.565725E-6	-85.132862
1.56577E-6	-87.544873
1.565815E-6	-120
1.56586E-6	-92.581396
1.565905E-6	-95.617742
1.56595E-6	-93.973975
1.565995E-6	-120
1.56604E-6	-120
1.566085E-6	-120
1.56613E-6	-89.918258
1.566175E-6	-88.010681
1.56622E-6	-85.587763
1.566265E-6	-120
1.56631E-6	-84.775558
1.566355E-6	-86.798537
1.5664E-6	-84.832003
1.566445E-6	-86.821455
1.56649E-6	-84.866492
1.566535E-6	-86.131445
1.56658E-6	-94.628108
1.566625E-6	-90.714505
1.56667E-6	-97.896815
1.566715E-6	-120
1.56676E-6	-120
1.566805E-6	-93.833145
1.56685E-6	-89.621752
1.566895E-6	-93.685562
1.56694E-6	-95.460704
1.566985E-6	-86.074789
1.56703E-6	-86.957249
1.567075E-6	-87.929045
1.56712E-6	-90.108172
1.567165E-6	-85.331324
1.56721E-6	-85.644741
1.567255E-6	-87.562181
1.5673E-6	-86.736641
1.567345E-6	-87.452103
1.56739E-6	-85.608253
1.567435E-6	-97.413627
1.56748E-6	-96.305986
1.567525E-6	-94.90663
1.56757E-6	-120
1.567615E-6	-120
1.56766E-6	-120
1.567705E-6	-95.991168
1.56775E-6	-90.683896
1.567795E-6	-89.219058
1.56784E-6	-86.827727
1.567885E-6	-87.827793
1.56793E-6	-88.687022
1.567975E-6	-92.474906
1.56802E-6	-86.280091
1.568065E-6	-88.107905
1.56811E-6	-81.438756
1.568155E-6	-90.730919
1.5682E-6	-87.539941
1.568245E-6	-90.124678
1.56829E-6	-120
1.568335E-6	-90.372993
1.56838E-6	-120
1.568425E-6	-120
1.56847E-6	-97.178312
1.568515E-6	-90.721166
1.56856E-6	-120
1.568605E-6	-102.590061
1.56865E-6	-88.623295
1.568695E-6	-88.181564
1.56874E-6	-86.27088
1.568785E-6	-87.057543
1.56883E-6	-88.33866
1.568875E-6	-83.423706
1.56892E-6	-85.525319
1.568965E-6	-85.011383
1.56901E-6	-92.145278
1.569055E-6	-120
1.5691E-6	-120
1.569145E-6	-120
1.56919E-6	-120
1.569235E-6	-120
1.56928E-6	-120
1.569325E-6	-94.115042
1.56937E-6	-120
1.569415E-6	-120
1.56946E-6	-90.665127
1.569505E-6	-86.287474
1.56955E-6	-89.446217
1.569595E-6	-89.197344
1.56964E-6	-87.87546
1.569685E-6	-92.82829
1.56973E-6	-89.50782
1.569775E-6	-89.538952
1.56982E-6	-88.863908
1.569865E-6	-120
1.56991E-6	-120
1.569955E-6	-120
1.57E-6	-91.541581
