Wavelength (nm)	Power (dBm)
1.525E-6	-79.800533
1.525045E-6	-79.779843
1.52509E-6	-79.562449
1.525135E-6	-82.649603
1.52518E-6	-85.919297
1.525225E-6	-89.423339
1.52527E-6	-92.90052
1.525315E-6	-92.272384
1.52536E-6	-89.277501
1.525405E-6	-120
1.52545E-6	-120
1.525495E-6	-86.5267
1.52554E-6	-81.900365
1.525585E-6	-80.103278
1.52563E-6	-79.118639
1.525675E-6	-78.44057
1.52572E-6	-78.187282
1.525765E-6	-78.279812
1.52581E-6	-78.136088
1.525855E-6	-78.294449
1.5259E-6	-79.496202
1.525945E-6	-81.792076
1.52599E-6	-87.835702
1.526035E-6	-89.617774
1.52608E-6	-90.202241
1.526125E-6	-88.53872
1.52617E-6	-100.07977
1.526215E-6	-89.408154
1.52626E-6	-86.326441
1.526305E-6	-81.300646
1.52635E-6	-78.53872
1.526395E-6	-77.180581
1.52644E-6	-76.912222
1.526485E-6	-76.819367
1.52653E-6	-76.667543
1.526575E-6	-76.746896
1.52662E-6	-76.765416
1.526665E-6	-78.124793
1.52671E-6	-80.286778
1.526755E-6	-86.066003
1.5268E-6	-90.77586
1.526845E-6	-97.503126
1.52689E-6	-90.467237
1.526935E-6	-91.918566
1.52698E-6	-92.688949
1.527025E-6	-90.93665
1.52707E-6	-80.953385
1.527115E-6	-76.931463
1.52716E-6	-75.905741
1.527205E-6	-75.777385
1.52725E-6	-75.646335
1.527295E-6	-75.939711
1.52734E-6	-75.50059
1.527385E-6	-75.8603
1.52743E-6	-76.27088
1.527475E-6	-78.738686
1.52752E-6	-82.367218
1.527565E-6	-87.572102
1.52761E-6	-120
1.527655E-6	-90.47256
1.5277E-6	-93.690639
1.527745E-6	-90.011742
1.52779E-6	-85.44546
1.527835E-6	-81.502122
1.52788E-6	-77.283907
1.527925E-6	-75.250557
1.52797E-6	-74.878495
1.528015E-6	-74.953932
1.52806E-6	-74.621809
1.528105E-6	-74.92684
1.52815E-6	-74.565528
1.528195E-6	-75.294425
1.52824E-6	-76.914356
1.528285E-6	-80.091729
1.52833E-6	-85.331324
1.528375E-6	-93.208448
1.52842E-6	-97.113037
1.528465E-6	-95.575202
1.52851E-6	-92.114074
1.528555E-6	-97.377863
1.5286E-6	-82.546909
1.528645E-6	-76.794383
1.52869E-6	-74.85718
1.528735E-6	-74.281748
1.52878E-6	-74.002261
1.528825E-6	-74.155557
1.52887E-6	-73.784083
1.528915E-6	-73.938337
1.52896E-6	-74.117283
1.529005E-6	-75.665502
1.52905E-6	-79.017025
1.529095E-6	-83.389449
1.52914E-6	-89.535048
1.529185E-6	-90.057709
1.52923E-6	-90.777937
1.529275E-6	-88.124793
1.52932E-6	-105.489815
1.529365E-6	-85.110265
1.52941E-6	-78.696662
1.529455E-6	-74.9026
1.5295E-6	-73.846813
1.529545E-6	-73.702847
1.52959E-6	-73.426573
1.529635E-6	-73.37431
1.52968E-6	-73.498868
1.529725E-6	-73.502758
1.52977E-6	-74.31329
1.529815E-6	-76.411138
1.52986E-6	-80.94366
1.529905E-6	-85.741399
1.52995E-6	-94.816177
1.529995E-6	-88.10229
1.53004E-6	-91.473371
1.530085E-6	-88.557372
1.53013E-6	-85.43634
1.530175E-6	-79.880069
1.53022E-6	-75.066814
1.530265E-6	-73.502758
1.53031E-6	-73.323603
1.530355E-6	-73.091839
1.5304E-6	-73.174037
1.530445E-6	-73.011169
1.53049E-6	-73.13185
1.530535E-6	-73.565473
1.53058E-6	-74.365189
1.530625E-6	-79.295927
1.53067E-6	-84.349791
1.530715E-6	-92.593216
1.53076E-6	-95.010006
1.530805E-6	-91.469105
1.53085E-6	-120
1.530895E-6	-103.666326
1.53094E-6	-82.019712
1.530985E-6	-75.676722
1.53103E-6	-73.635121
1.531075E-6	-73.113133
1.53112E-6	-72.988639
1.531165E-6	-72.864255
1.53121E-6	-72.84749
1.531255E-6	-72.943073
1.5313E-6	-73.262421
1.531345E-6	-74.345064
1.53139E-6	-77.577071
1.531435E-6	-81.984591
1.53148E-6	-89.863203
1.531525E-6	-91.401415
1.53157E-6	-120
1.531615E-6	-120
1.53166E-6	-88.616973
1.531705E-6	-84.871822
1.53175E-6	-77.389752
1.531795E-6	-74.505063
1.53184E-6	-73.310553
1.531885E-6	-72.951634
1.53193E-6	-73.102473
1.531975E-6	-72.863415
1.53202E-6	-72.920043
1.532065E-6	-73.110465
1.53211E-6	-73.81429
1.532155E-6	-76.247023
1.5322E-6	-79.788107
1.532245E-6	-86.300424
1.53229E-6	-87.710866
1.532335E-6	-96.437829
1.53238E-6	-120
1.532425E-6	-90.745332
1.53247E-6	-86.13501
1.532515E-6	-80.528605
1.53256E-6	-75.307673
1.532605E-6	-73.603143
1.53265E-6	-73.2468
1.532695E-6	-73.046059
1.53274E-6	-73.036436
1.532785E-6	-73.041682
1.53283E-6	-72.967946
1.532875E-6	-73.711004
1.53292E-6	-75.404567
1.532965E-6	-78.9279
1.53301E-6	-87.582046
1.533055E-6	-90.997968
1.5331E-6	-120
1.533145E-6	-103.544795
1.53319E-6	-87.690404
1.533235E-6	-88.303256
1.53328E-6	-84.675004
1.533325E-6	-76.685727
1.53337E-6	-74.685211
1.533415E-6	-73.741733
1.53346E-6	-73.736596
1.533505E-6	-73.77786
1.53355E-6	-73.520305
1.533595E-6	-73.641143
1.53364E-6	-73.911532
1.533685E-6	-74.842586
1.53373E-6	-77.75726
1.533775E-6	-81.280186
1.53382E-6	-89.901244
1.533865E-6	-89.295927
1.53391E-6	-89.411945
1.533955E-6	-92.409368
1.534E-6	-90.130492
1.534045E-6	-88.604357
1.53409E-6	-80.945819
1.534135E-6	-75.919297
1.53418E-6	-74.483061
1.534225E-6	-74.277094
1.53427E-6	-74.256214
1.534315E-6	-74.272445
1.53436E-6	-74.353339
1.534405E-6	-74.491604
1.53445E-6	-74.808285
1.534495E-6	-76.661499
1.53454E-6	-79.726504
1.534585E-6	-85.392525
1.53463E-6	-120
1.534675E-6	-90.103278
1.53472E-6	-120
1.534765E-6	-120
1.53481E-6	-91.609621
1.534855E-6	-83.985919
1.5349E-6	-78.359447
1.534945E-6	-75.956795
1.53499E-6	-74.804345
1.535035E-6	-74.835969
1.53508E-6	-74.834646
1.535125E-6	-75.118725
1.53517E-6	-75.231684
1.535215E-6	-75.627252
1.53526E-6	-76.78816
1.535305E-6	-79.058784
1.53535E-6	-83.675427
1.535395E-6	-86.036263
1.53544E-6	-120
1.535485E-6	-120
1.53553E-6	-95.30178
1.535575E-6	-86.836102
1.53562E-6	-94.005536
1.535665E-6	-80.59932
1.53571E-6	-77.026773
1.535755E-6	-75.808707
1.5358E-6	-75.787252
1.535845E-6	-75.774102
1.53589E-6	-75.446982
1.535935E-6	-76.151092
1.53598E-6	-75.50059
1.536025E-6	-76.775739
1.53607E-6	-78.091083
1.536115E-6	-81.037494
1.53616E-6	-88.207355
1.536205E-6	-88.392314
1.53625E-6	-87.939841
1.536295E-6	-120
1.53634E-6	-100.258569
1.536385E-6	-90.327329
1.53643E-6	-86.466609
1.536475E-6	-79.430951
1.53652E-6	-76.495581
1.536565E-6	-75.958508
1.53661E-6	-75.977386
1.536655E-6	-75.96022
1.5367E-6	-75.961934
1.536745E-6	-76.455074
1.53679E-6	-76.677636
1.536835E-6	-77.217038
1.53688E-6	-79.609827
1.536925E-6	-84.446637
1.53697E-6	-93.074174
1.537015E-6	-96.611453
1.53706E-6	-120
1.537105E-6	-92.401056
1.53715E-6	-88.687022
1.537195E-6	-85.938006
1.53724E-6	-81.937522
1.537285E-6	-78.365404
1.53733E-6	-76.773673
1.537375E-6	-76.332036
1.53742E-6	-76.478175
1.537465E-6	-76.627405
1.53751E-6	-76.33017
1.537555E-6	-76.579723
1.5376E-6	-77.272304
1.537645E-6	-78.195874
1.53769E-6	-83.025963
1.537735E-6	-88.761484
1.53778E-6	-92.609818
1.537825E-6	-91.999018
1.53787E-6	-95.22734
1.537915E-6	-89.017025
1.53796E-6	-92.61378
1.538005E-6	-85.335773
1.53805E-6	-80.453234
1.538095E-6	-77.493361
1.53814E-6	-76.245193
1.538185E-6	-76.825635
1.53823E-6	-76.315272
1.538275E-6	-76.637404
1.53832E-6	-76.706021
1.538365E-6	-77.178312
1.53841E-6	-77.639669
1.538455E-6	-79.519468
1.5385E-6	-84.372315
1.538545E-6	-87.664962
1.53859E-6	-120
1.538635E-6	-91.573284
1.53868E-6	-95.702477
1.538725E-6	-88.425432
1.53877E-6	-97.612014
1.538815E-6	-82.092224
1.53886E-6	-78.745187
1.538905E-6	-76.714166
1.53895E-6	-77.024583
1.538995E-6	-76.942188
1.53904E-6	-76.206945
1.539085E-6	-76.978856
1.53913E-6	-76.554113
1.539175E-6	-77.223908
1.53922E-6	-78.51089
1.539265E-6	-81.951793
1.53931E-6	-90.038387
1.539355E-6	-120
1.5394E-6	-93.328273
1.539445E-6	-94.967542
1.53949E-6	-96.524748
1.539535E-6	-120
1.53958E-6	-86.483969
1.539625E-6	-80.877779
1.53967E-6	-77.342391
1.539715E-6	-76.867657
1.53976E-6	-76.530605
1.539805E-6	-76.613443
1.53985E-6	-76.373291
1.539895E-6	-76.449318
1.53994E-6	-76.516951
1.539985E-6	-77.033348
1.54003E-6	-79.901244
1.540075E-6	-83.640139
1.54012E-6	-96.472388
1.540165E-6	-91.210763
1.54021E-6	-95.731635
1.540255E-6	-120
1.5403E-6	-101.51503
1.540345E-6	-87.835702
1.54039E-6	-83.154239
1.540435E-6	-78.989406
1.54048E-6	-76.532559
1.540525E-6	-76.685727
1.54057E-6	-76.35074
1.540615E-6	-76.343249
1.54066E-6	-76.247023
1.540705E-6	-76.358244
1.54075E-6	-76.485902
1.540795E-6	-78.27689
1.54084E-6	-80.543837
1.540885E-6	-85.127202
1.54093E-6	-120
1.540975E-6	-91.860856
1.54102E-6	-96.110112
1.541065E-6	-97.205612
1.54111E-6	-95.905741
1.541155E-6	-88.797552
1.5412E-6	-80.752556
1.541245E-6	-77.246886
1.54129E-6	-76.032777
1.541335E-6	-75.820304
1.54138E-6	-75.875395
1.541425E-6	-75.802094
1.54147E-6	-75.678327
1.541515E-6	-75.797141
1.54156E-6	-76.482037
1.541605E-6	-78.658229
1.54165E-6	-82.697023
1.541695E-6	-88.658229
1.54174E-6	-120
1.541785E-6	-94.056074
1.54183E-6	-92.181728
1.541875E-6	-89.535048
1.54192E-6	-90.548762
1.541965E-6	-83.215727
1.54201E-6	-79.19013
1.542055E-6	-76.252517
1.5421E-6	-76.118988
1.542145E-6	-75.720273
1.54219E-6	-75.597208
1.542235E-6	-75.564241
1.54228E-6	-75.867002
1.542325E-6	-75.556429
1.54237E-6	-76.558043
1.542415E-6	-79.262816
1.54246E-6	-83.609121
1.542505E-6	-89.734667
1.54255E-6	-87.542406
1.542595E-6	-89.50782
1.54264E-6	-88.989406
1.542685E-6	-90.629839
1.54273E-6	-89.763361
1.542775E-6	-80.758758
1.54282E-6	-77.081873
1.542865E-6	-75.810362
1.54291E-6	-75.511392
1.542955E-6	-75.477534
1.543E-6	-75.212892
1.543045E-6	-75.760991
1.54309E-6	-75.463759
1.543135E-6	-75.733261
1.54318E-6	-77.90217
1.543225E-6	-81.000154
1.54327E-6	-85.759355
1.543315E-6	-120
1.54336E-6	-120
1.543405E-6	-100.013484
1.54345E-6	-96.777807
1.543495E-6	-94.052761
1.54354E-6	-85.059846
1.543585E-6	-79.408154
1.54363E-6	-76.994045
1.543675E-6	-75.635193
1.54372E-6	-75.228787
1.543765E-6	-75.450028
1.54381E-6	-75.332806
1.543855E-6	-75.298836
1.5439E-6	-75.612995
1.543945E-6	-76.599527
1.54399E-6	-78.215987
1.544035E-6	-82.067686
1.54408E-6	-87.368375
1.544125E-6	-92.94564
1.54417E-6	-88.569852
1.544215E-6	-91.813783
1.54426E-6	-88.175853
1.544305E-6	-87.318903
1.54435E-6	-82.979143
1.544395E-6	-78.071539
1.54444E-6	-75.679933
1.544485E-6	-75.497509
1.54453E-6	-75.431787
1.544575E-6	-75.062632
1.54462E-6	-74.945787
1.544665E-6	-75.068209
1.54471E-6	-75.128616
1.544755E-6	-76.472388
1.5448E-6	-79.023957
1.544845E-6	-84.104972
1.54489E-6	-89.871628
1.544935E-6	-88.005191
1.54498E-6	-86.276404
1.545025E-6	-83.250471
1.54507E-6	-76.185239
1.545115E-6	-63.440936
1.54516E-6	-49.492337
1.545205E-6	-42.941363
1.54525E-6	-40.724757
1.545295E-6	-40.243385
1.54534E-6	-40.164639
1.545385E-6	-40.120657
1.54543E-6	-40.175931
1.545475E-6	-40.520764
1.54552E-6	-42.509597
1.545565E-6	-47.662426
1.54561E-6	-56.907958
1.545655E-6	-65.581478
1.5457E-6	-72.795926
1.545745E-6	-78.544928
1.54579E-6	-84.100504
1.545835E-6	-86.78816
1.54588E-6	-87.547342
1.545925E-6	-84.198737
1.54597E-6	-79.566377
1.546015E-6	-76.382722
1.54606E-6	-75.097605
1.546105E-6	-75.297366
1.54615E-6	-75.030704
1.546195E-6	-74.878495
1.54624E-6	-74.958011
1.546285E-6	-75.31505
1.54633E-6	-76.259853
1.546375E-6	-77.754669
1.54642E-6	-81.551502
1.546465E-6	-86.92504
1.54651E-6	-120
1.546555E-6	-120
1.5466E-6	-91.350145
1.546645E-6	-120
1.54669E-6	-96.392173
1.546735E-6	-83.155137
1.54678E-6	-78.671002
1.546825E-6	-75.833595
1.54687E-6	-75.313573
1.546915E-6	-75.347659
1.54696E-6	-75.045944
1.547005E-6	-75.05428
1.54705E-6	-75.125788
1.547095E-6	-75.184141
1.54714E-6	-76.024076
1.547185E-6	-78.674202
1.54723E-6	-83.708963
1.547275E-6	-89.048306
1.54732E-6	-97.137681
1.547365E-6	-91.676188
1.54741E-6	-91.836924
1.547455E-6	-94.299243
1.5475E-6	-92.718086
1.547545E-6	-81.204454
1.54759E-6	-77.233085
1.547635E-6	-75.233133
1.54768E-6	-75.26513
1.547725E-6	-74.813545
1.54777E-6	-74.92279
1.547815E-6	-75.043169
1.54786E-6	-75.027938
1.547905E-6	-75.388017
1.54795E-6	-76.560009
1.547995E-6	-79.469216
1.54804E-6	-84.400934
1.548085E-6	-94.350973
1.54813E-6	-101.560824
1.548175E-6	-103.457272
1.54822E-6	-99.961088
1.548265E-6	-92.819968
1.54831E-6	-85.747919
1.548355E-6	-81.034187
1.5484E-6	-76.552149
1.548445E-6	-75.561115
1.54849E-6	-75.300308
1.548535E-6	-74.959371
1.54858E-6	-75.187007
1.548625E-6	-75.014138
1.54867E-6	-75.231684
1.548715E-6	-75.456125
1.54876E-6	-77.358908
1.548805E-6	-80.214999
1.54885E-6	-84.951215
1.548895E-6	-87.8199
1.54894E-6	-97.809397
1.548985E-6	-90.382468
1.54903E-6	-90.607804
1.549075E-6	-92.142432
1.54912E-6	-87.980569
1.549165E-6	-79.854795
1.54921E-6	-76.097716
1.549255E-6	-75.270973
1.5493E-6	-75.262212
1.549345E-6	-74.966179
1.54939E-6	-74.858509
1.549435E-6	-74.72499
1.54948E-6	-75.192746
1.549525E-6	-75.783961
1.54957E-6	-78.273971
1.549615E-6	-81.154312
1.54966E-6	-86.239708
1.549705E-6	-93.400838
1.54975E-6	-88.116341
1.549795E-6	-87.196493
1.54984E-6	-81.08853
1.549885E-6	-71.92668
1.54993E-6	-55.320961
1.549975E-6	-45.005879
1.55002E-6	-41.432107
1.550065E-6	-40.245222
1.55011E-6	-40.061231
1.550155E-6	-39.995659
1.5502E-6	-40.003041
1.550245E-6	-40.053749
1.55029E-6	-40.847585
1.550335E-6	-43.764406
1.55038E-6	-50.154727
1.550425E-6	-61.52489
1.55047E-6	-68.87395
1.550515E-6	-75.873715
1.55056E-6	-80.578431
1.550605E-6	-85.733261
1.55065E-6	-86.236056
1.550695E-6	-89.010104
1.55074E-6	-82.003838
1.550785E-6	-77.493361
1.55083E-6	-75.762628
1.550875E-6	-74.996263
1.55092E-6	-74.127382
1.550965E-6	-75.111674
1.55101E-6	-74.661009
1.551055E-6	-74.907975
1.5511E-6	-75.169836
1.551145E-6	-75.802094
1.55119E-6	-78.498578
1.551235E-6	-82.401056
1.55128E-6	-91.422455
1.551325E-6	-120
1.55137E-6	-120
1.551415E-6	-88.259402
1.55146E-6	-90.318441
1.551505E-6	-92.923447
1.55155E-6	-80.95555
1.551595E-6	-76.677636
1.55164E-6	-75.404567
1.551685E-6	-74.869156
1.55173E-6	-74.997635
1.551775E-6	-74.855851
1.55182E-6	-74.743075
1.551865E-6	-74.822764
1.55191E-6	-74.881166
1.551955E-6	-76.237881
1.552E-6	-79.681877
1.552045E-6	-84.115042
1.55209E-6	-89.370422
1.552135E-6	-87.456937
1.55218E-6	-87.920965
1.552225E-6	-99.783973
1.55227E-6	-120
1.552315E-6	-84.717262
1.55236E-6	-80.932341
1.552405E-6	-76.424463
1.55245E-6	-75.292956
1.552495E-6	-74.944431
1.55254E-6	-74.694161
1.552585E-6	-74.678829
1.55263E-6	-74.648325
1.552675E-6	-74.529641
1.55272E-6	-75.144205
1.552765E-6	-76.092415
1.55281E-6	-78.965384
1.552855E-6	-84.67373
1.5529E-6	-88.751699
1.552945E-6	-99.04482
1.55299E-6	-89.685915
1.553035E-6	-93.406544
1.55308E-6	-89.982663
1.553125E-6	-84.458744
1.55317E-6	-79.299621
1.553215E-6	-75.927791
1.55326E-6	-74.863829
1.553305E-6	-74.539511
1.55335E-6	-74.749552
1.553395E-6	-74.666093
1.55344E-6	-74.577972
1.553485E-6	-74.678829
1.55353E-6	-75.176982
1.553575E-6	-76.732546
1.55362E-6	-79.605859
1.553665E-6	-84.267802
1.55371E-6	-89.738755
1.553755E-6	-94.481842
1.5538E-6	-120
1.553845E-6	-96.643415
1.55389E-6	-120
1.553935E-6	-83.965308
1.55398E-6	-78.92112
1.554025E-6	-75.803746
1.55407E-6	-74.761235
1.554115E-6	-74.449056
1.55416E-6	-74.426131
1.554205E-6	-74.867824
1.55425E-6	-74.326207
1.554295E-6	-74.641997
1.55434E-6	-75.297366
1.554385E-6	-77.002748
1.55443E-6	-80.062552
1.554475E-6	-84.496493
1.55452E-6	-120
1.554565E-6	-120
1.55461E-6	-120
1.554655E-6	-89.143527
1.5547E-6	-86.92504
1.554745E-6	-84.487941
1.55479E-6	-78.297383
1.554835E-6	-75.50059
1.55488E-6	-74.516106
1.554925E-6	-74.341522
1.55497E-6	-74.287571
1.555015E-6	-74.40692
1.55506E-6	-74.014283
1.555105E-6	-74.209027
1.55515E-6	-75.287083
1.555195E-6	-77.124222
1.55524E-6	-80.766005
1.555285E-6	-86.627405
1.55533E-6	-93.863696
1.555375E-6	-120
1.55542E-6	-94.821446
1.555465E-6	-120
1.55551E-6	-90.034883
1.555555E-6	-83.600158
1.5556E-6	-78.416375
1.555645E-6	-75.282683
1.55569E-6	-74.480623
1.555735E-6	-74.001169
1.55578E-6	-74.332091
1.555825E-6	-74.10609
1.55587E-6	-74.181641
1.555915E-6	-74.55312
1.55596E-6	-75.15985
1.556005E-6	-77.520267
1.55605E-6	-80.90765
1.556095E-6	-86.716204
1.55614E-6	-101.578902
1.556185E-6	-95.731635
1.55623E-6	-90.83862
1.556275E-6	-95.644741
1.55632E-6	-111.189579
1.556365E-6	-82.753146
1.55641E-6	-77.975117
1.556455E-6	-74.897232
1.5565E-6	-74.49894
1.556545E-6	-74.399738
1.55659E-6	-74.218194
1.556635E-6	-74.23083
1.55668E-6	-74.151037
1.556725E-6	-74.433357
1.55677E-6	-74.993519
1.556815E-6	-77.500682
1.55686E-6	-80.077116
1.556905E-6	-86.714166
1.55695E-6	-87.657359
1.556995E-6	-98.768019
1.55704E-6	-120
1.557085E-6	-120
1.55713E-6	-90.775341
1.557175E-6	-82.459576
1.55722E-6	-77.361273
1.557265E-6	-75.127202
1.55731E-6	-74.35926
1.557355E-6	-74.447846
1.5574E-6	-74.06271
1.557445E-6	-74.266642
1.55749E-6	-74.386601
1.557535E-6	-74.579219
1.55758E-6	-75.253467
1.557625E-6	-77.617029
1.55767E-6	-80.475466
1.557715E-6	-85.798792
1.55776E-6	-86.577748
1.557805E-6	-89.277501
1.55785E-6	-90.409109
1.557895E-6	-120
1.55794E-6	-90.51587
1.557985E-6	-82.988639
1.55803E-6	-77.196493
1.558075E-6	-75.107448
1.55812E-6	-74.45632
1.558165E-6	-73.994627
1.55821E-6	-74.043936
1.558255E-6	-74.169146
1.5583E-6	-74.267802
1.558345E-6	-74.386601
1.55839E-6	-75.52842
1.558435E-6	-78.648673
1.55848E-6	-81.932775
1.558525E-6	-85.231684
1.55857E-6	-89.020489
1.558615E-6	-120
1.55866E-6	-90.242007
1.558705E-6	-93.792395
1.55875E-6	-90.810266
1.558795E-6	-83.971807
1.55884E-6	-77.389752
1.558885E-6	-75.025175
1.55893E-6	-74.222785
1.558975E-6	-74.496493
1.55902E-6	-74.417716
1.559065E-6	-74.519793
1.55911E-6	-74.66355
1.559155E-6	-74.489161
1.5592E-6	-75.603516
1.559245E-6	-78.021683
1.55929E-6	-80.587371
1.559335E-6	-87.736579
1.55938E-6	-110.074023
1.559425E-6	-92.49029
1.55947E-6	-120
1.559515E-6	-92.292216
1.55956E-6	-88.44057
1.559605E-6	-83.214816
1.55965E-6	-78.06319
1.559695E-6	-75.195619
1.55974E-6	-74.696722
1.559785E-6	-74.735315
1.55983E-6	-74.439388
1.559875E-6	-74.686488
1.55992E-6	-74.855851
1.559965E-6	-74.829361
1.56001E-6	-75.644741
1.560055E-6	-77.817271
1.5601E-6	-80.896424
1.560145E-6	-86.263525
1.56019E-6	-90.887358
1.560235E-6	-120
1.56028E-6	-89.969705
1.560325E-6	-120
1.56037E-6	-120
1.560415E-6	-83.992449
1.56046E-6	-78.315025
1.560505E-6	-76.044989
1.56055E-6	-75.192746
1.560595E-6	-74.835969
1.56064E-6	-74.784697
1.560685E-6	-74.94172
1.56073E-6	-74.820128
1.560775E-6	-74.8096
1.56082E-6	-75.89729
1.560865E-6	-78.23041
1.56091E-6	-81.255182
1.560955E-6	-86.532559
1.561E-6	-90.220936
1.561045E-6	-91.771131
1.56109E-6	-94.606729
1.561135E-6	-94.432152
1.56118E-6	-94.202164
1.561225E-6	-83.836295
1.56127E-6	-78.958544
1.561315E-6	-76.300424
1.56136E-6	-75.459177
1.561405E-6	-75.657505
1.56145E-6	-75.495969
1.561495E-6	-75.612995
1.56154E-6	-75.465288
1.561585E-6	-75.583049
1.56163E-6	-76.117211
1.561675E-6	-78.696662
1.56172E-6	-82.378468
1.561765E-6	-89.248181
1.56181E-6	-92.71971
1.561855E-6	-88.124793
1.5619E-6	-120
1.561945E-6	-89.020489
1.56199E-6	-87.637147
1.562035E-6	-85.608253
1.56208E-6	-79.901244
1.562125E-6	-76.85922
1.56217E-6	-75.835259
1.562215E-6	-75.592483
1.56226E-6	-76.103025
1.562305E-6	-75.880438
1.56235E-6	-76.050233
1.562395E-6	-75.764265
1.56244E-6	-76.716204
1.562485E-6	-78.817353
1.56253E-6	-81.994891
1.562575E-6	-86.071273
1.56262E-6	-90.848113
1.562665E-6	-98.368386
1.56271E-6	-96.981023
1.562755E-6	-93.140792
1.5628E-6	-120
1.562845E-6	-86.367642
1.56289E-6	-80.558135
1.562935E-6	-77.607005
1.56298E-6	-76.476245
1.563025E-6	-76.611453
1.56307E-6	-76.309698
1.563115E-6	-76.474316
1.56316E-6	-76.281935
1.563205E-6	-76.333903
1.56325E-6	-76.93575
1.563295E-6	-78.745187
1.56334E-6	-81.813783
1.563385E-6	-86.540385
1.56343E-6	-87.048729
1.563475E-6	-120
1.56352E-6	-120
1.563565E-6	-96.920763
1.56361E-6	-120
1.563655E-6	-93.945872
1.5637E-6	-82.652802
1.563745E-6	-78.315025
1.56379E-6	-76.657474
1.563835E-6	-76.829819
1.56388E-6	-77.113037
1.563925E-6	-76.920763
1.56397E-6	-76.92932
1.564015E-6	-76.641411
1.56406E-6	-77.728849
1.564105E-6	-79.164974
1.56415E-6	-81.856192
1.564195E-6	-84.453897
1.56424E-6	-120
1.564285E-6	-120
1.56433E-6	-91.189579
1.564375E-6	-97.710866
1.56442E-6	-101.660246
1.564465E-6	-89.867413
1.56451E-6	-83.047811
1.564555E-6	-79.115095
1.5646E-6	-78.024438
1.564645E-6	-77.527635
1.56469E-6	-77.94525
1.564735E-6	-77.110804
1.56478E-6	-77.18285
1.564825E-6	-77.89414
1.56487E-6	-77.508016
1.564915E-6	-79.164974
1.56496E-6	-81.466669
1.565005E-6	-85.469876
1.56505E-6	-96.106567
1.565095E-6	-94.053865
1.56514E-6	-84.22738
1.565185E-6	-89.175737
1.56523E-6	-97.21475
1.565275E-6	-120
1.56532E-6	-85.298836
1.565365E-6	-81.104742
1.56541E-6	-78.309136
1.565455E-6	-78.082696
1.5655E-6	-77.931741
1.565545E-6	-78.350526
1.56559E-6	-78.4649
1.565635E-6	-78.158766
1.56568E-6	-78.569852
1.565725E-6	-79.24453
1.56577E-6	-82.244624
1.565815E-6	-94.668637
1.56586E-6	-92.757241
1.565905E-6	-92.053029
1.56595E-6	-120
1.565995E-6	-89.104481
1.56604E-6	-91.49415
1.566085E-6	-87.166988
1.56613E-6	-86.920763
1.566175E-6	-81.244179
1.56622E-6	-79.20457
1.566265E-6	-79.385475
1.56631E-6	-79.013563
1.566355E-6	-78.480176
1.5664E-6	-78.699881
1.566445E-6	-78.87395
1.56649E-6	-78.965384
1.566535E-6	-79.430951
1.56658E-6	-82.656803
1.566625E-6	-84.861168
1.56667E-6	-120
1.566715E-6	-120
1.56676E-6	-120
1.566805E-6	-85.31505
1.56685E-6	-120
1.566895E-6	-95.600361
1.56694E-6	-85.654311
1.566985E-6	-83.128279
1.56703E-6	-80.201786
1.567075E-6	-79.858997
1.56712E-6	-79.586073
1.567165E-6	-79.892761
1.56721E-6	-79.24453
1.567255E-6	-80.075349
1.5673E-6	-79.538952
1.567345E-6	-81.024279
1.56739E-6	-81.977738
1.567435E-6	-86.169031
1.56748E-6	-92.216317
1.567525E-6	-94.565528
1.56757E-6	-90.802945
1.567615E-6	-120
1.56766E-6	-92.361978
1.567705E-6	-101.879561
1.56775E-6	-87.173779
1.567795E-6	-83.921163
1.56784E-6	-81.530447
1.567885E-6	-79.645703
1.56793E-6	-80.688474
1.567975E-6	-79.909743
1.56802E-6	-80.222764
1.568065E-6	-80.078001
1.56811E-6	-80.35222
1.568155E-6	-81.047985
1.5682E-6	-81.701176
1.568245E-6	-86.337639
1.56829E-6	-120
1.568335E-6	-120
1.56838E-6	-120
1.568425E-6	-97.999707
1.56847E-6	-90.522233
1.568515E-6	-120
1.56856E-6	-120
1.568605E-6	-85.992894
1.56865E-6	-82.076784
1.568695E-6	-80.827571
1.56874E-6	-80.751007
1.568785E-6	-80.510005
1.56883E-6	-80.873529
1.568875E-6	-80.831251
1.56892E-6	-80.898026
1.568965E-6	-81.321202
1.56901E-6	-83.051317
1.569055E-6	-86.140364
1.5691E-6	-90.44168
1.569145E-6	-96.726411
1.56919E-6	-120
1.569235E-6	-120
1.56928E-6	-120
1.569325E-6	-120
1.56937E-6	-91.359044
1.569415E-6	-85.999804
1.56946E-6	-85.13853
1.569505E-6	-82.151688
1.56955E-6	-82.543788
1.569595E-6	-82.106308
1.56964E-6	-81.754837
1.569685E-6	-81.056839
1.56973E-6	-81.612768
1.569775E-6	-82.011423
1.56982E-6	-82.684918
1.569865E-6	-83.746875
1.56991E-6	-86.92504
1.569955E-6	-91.433919
1.57E-6	-95.36107
