Wavelength (nm)	Power (dBm)
1.525E-6	-70.071373
1.525045E-6	-69.961088
1.52509E-6	-70.450824
1.525135E-6	-72.287066
1.52518E-6	-76.03452
1.525225E-6	-79.329291
1.52527E-6	-81.798642
1.525315E-6	-83.054825
1.52536E-6	-82.23081
1.525405E-6	-82.865935
1.52545E-6	-81.340673
1.525495E-6	-75.300308
1.52554E-6	-71.228015
1.525585E-6	-69.362914
1.52563E-6	-68.877302
1.525675E-6	-68.690233
1.52572E-6	-68.535619
1.525765E-6	-68.239087
1.52581E-6	-68.167302
1.525855E-6	-68.419392
1.5259E-6	-69.850597
1.525945E-6	-73.251389
1.52599E-6	-77.614521
1.526035E-6	-81.37332
1.52608E-6	-82.374715
1.526125E-6	-83.346066
1.52617E-6	-83.425617
1.526215E-6	-81.183301
1.52626E-6	-74.74696
1.526305E-6	-70.535969
1.52635E-6	-68.218867
1.526395E-6	-67.473897
1.52644E-6	-67.233085
1.526485E-6	-67.121983
1.52653E-6	-67.088532
1.526575E-6	-66.981023
1.52662E-6	-67.203331
1.526665E-6	-68.368386
1.52671E-6	-71.142996
1.526755E-6	-76.006725
1.5268E-6	-79.605859
1.526845E-6	-82.748237
1.52689E-6	-80.867161
1.526935E-6	-81.276106
1.52698E-6	-81.570165
1.527025E-6	-75.578339
1.52707E-6	-70.299322
1.527115E-6	-67.23998
1.52716E-6	-66.226937
1.527205E-6	-66.027554
1.52725E-6	-65.856953
1.527295E-6	-65.841923
1.52734E-6	-65.830268
1.527385E-6	-65.845258
1.52743E-6	-66.757175
1.527475E-6	-69.35542
1.52752E-6	-73.404641
1.527565E-6	-78.486301
1.52761E-6	-81.539104
1.527655E-6	-81.54964
1.5277E-6	-81.093555
1.527745E-6	-82.817475
1.52779E-6	-78.201611
1.527835E-6	-70.697643
1.52788E-6	-66.804776
1.527925E-6	-65.341712
1.52797E-6	-65.048721
1.528015E-6	-64.905286
1.52806E-6	-64.855851
1.528105E-6	-64.845236
1.52815E-6	-64.859838
1.528195E-6	-65.319482
1.52824E-6	-67.300203
1.528285E-6	-70.951763
1.52833E-6	-76.49752
1.528375E-6	-80.059469
1.52842E-6	-81.7399
1.528465E-6	-82.118316
1.52851E-6	-82.133905
1.528555E-6	-78.917733
1.5286E-6	-71.328272
1.528645E-6	-66.595559
1.52869E-6	-64.779472
1.528735E-6	-64.240044
1.52878E-6	-64.084902
1.528825E-6	-64.004444
1.52887E-6	-64.018664
1.528915E-6	-63.977229
1.52896E-6	-64.252744
1.529005E-6	-65.747919
1.52905E-6	-69.351678
1.529095E-6	-74.197595
1.52914E-6	-79.480761
1.529185E-6	-81.300646
1.52923E-6	-81.746388
1.529275E-6	-81.354889
1.52932E-6	-80.406724
1.529365E-6	-72.967946
1.52941E-6	-67.210179
1.529455E-6	-64.66355
1.5295E-6	-63.76544
1.529545E-6	-63.511523
1.52959E-6	-63.436143
1.529635E-6	-63.411304
1.52968E-6	-63.40369
1.529725E-6	-63.471737
1.52977E-6	-64.497716
1.529815E-6	-67.194216
1.52986E-6	-71.650074
1.529905E-6	-77.878124
1.52995E-6	-80.622314
1.529995E-6	-81.994204
1.53004E-6	-81.91249
1.530085E-6	-81.979792
1.53013E-6	-75.207127
1.530175E-6	-68.598063
1.53022E-6	-64.817493
1.530265E-6	-63.46691
1.53031E-6	-63.166827
1.530355E-6	-63.080349
1.5304E-6	-63.060094
1.530445E-6	-63.020736
1.53049E-6	-63.057459
1.530535E-6	-63.646168
1.53058E-6	-65.772461
1.530625E-6	-69.54677
1.53067E-6	-75.294425
1.530715E-6	-79.609827
1.53076E-6	-80.859743
1.530805E-6	-81.094672
1.53085E-6	-81.492925
1.530895E-6	-76.998395
1.53094E-6	-70.245222
1.530985E-6	-65.477534
1.53103E-6	-63.525192
1.531075E-6	-62.947351
1.53112E-6	-62.849163
1.531165E-6	-62.809174
1.53121E-6	-62.775306
1.531255E-6	-62.829123
1.5313E-6	-63.089185
1.531345E-6	-64.517335
1.53139E-6	-67.915586
1.531435E-6	-73.089185
1.53148E-6	-78.563608
1.531525E-6	-81.005078
1.53157E-6	-81.499054
1.531615E-6	-81.231474
1.53166E-6	-80.205882
1.531705E-6	-72.608234
1.53175E-6	-66.643415
1.531795E-6	-63.934037
1.53184E-6	-63.016384
1.531885E-6	-62.865095
1.53193E-6	-62.879399
1.531975E-6	-62.895441
1.53202E-6	-62.905604
1.532065E-6	-62.992963
1.53211E-6	-63.846813
1.532155E-6	-66.399749
1.5322E-6	-70.814455
1.532245E-6	-76.905828
1.53229E-6	-80.17955
1.532335E-6	-81.752886
1.53238E-6	-80.487111
1.532425E-6	-81.243022
1.53247E-6	-75.684754
1.532515E-6	-69.104481
1.53256E-6	-64.845236
1.532605E-6	-63.440936
1.53265E-6	-63.016384
1.532695E-6	-62.976556
1.53274E-6	-62.935383
1.532785E-6	-62.942218
1.53283E-6	-63.052194
1.532875E-6	-63.523237
1.53292E-6	-65.349147
1.532965E-6	-69.359166
1.53301E-6	-74.511194
1.533055E-6	-79.706162
1.5331E-6	-80.98106
1.533145E-6	-80.951222
1.53319E-6	-81.576404
1.533235E-6	-80
1.53328E-6	-72.016256
1.533325E-6	-66.583677
1.53337E-6	-64.418917
1.533415E-6	-63.600158
1.53346E-6	-63.443814
1.533505E-6	-63.481407
1.53355E-6	-63.511523
1.533595E-6	-63.620102
1.53364E-6	-63.853137
1.533685E-6	-64.990778
1.53373E-6	-67.827793
1.533775E-6	-72.505729
1.53382E-6	-78.016179
1.533865E-6	-80.81236
1.53391E-6	-80.95555
1.533955E-6	-81.256922
1.534E-6	-81.545299
1.534045E-6	-75.285616
1.53409E-6	-69.086848
1.534135E-6	-65.731635
1.53418E-6	-64.519793
1.534225E-6	-64.27942
1.53427E-6	-64.286406
1.534315E-6	-64.289903
1.53436E-6	-64.301581
1.534405E-6	-64.490382
1.53445E-6	-65.05289
1.534495E-6	-66.96372
1.53454E-6	-70.455645
1.534585E-6	-76.111886
1.53463E-6	-79.738755
1.534675E-6	-81.985277
1.53472E-6	-81.261565
1.534765E-6	-81.835598
1.53481E-6	-79.649707
1.534855E-6	-72.339591
1.5349E-6	-67.599502
1.534945E-6	-65.673513
1.53499E-6	-65.05289
1.535035E-6	-64.999008
1.53508E-6	-65.023794
1.535125E-6	-65.117314
1.53517E-6	-65.149888
1.535215E-6	-65.404567
1.53526E-6	-66.639407
1.535305E-6	-69.746941
1.53535E-6	-74.034029
1.535395E-6	-78.38632
1.53544E-6	-79.488475
1.535485E-6	-78.703101
1.53553E-6	-76.375175
1.535575E-6	-70.102388
1.53562E-6	-56.671577
1.535665E-6	-42.689756
1.53571E-6	-37.572102
1.535755E-6	-35.590909
1.5358E-6	-35.127202
1.535845E-6	-35.155578
1.53589E-6	-35.250557
1.535935E-6	-35.367044
1.53598E-6	-35.873715
1.536025E-6	-38.065971
1.53607E-6	-42.809174
1.536115E-6	-52.878556
1.53616E-6	-62.230084
1.536205E-6	-69.333014
1.53625E-6	-74.846561
1.536295E-6	-77.609509
1.53634E-6	-79.048306
1.536385E-6	-78.748442
1.53643E-6	-73.255063
1.536475E-6	-69.041335
1.53652E-6	-66.90157
1.536565E-6	-66.371407
1.53661E-6	-66.337639
1.536655E-6	-66.358244
1.5367E-6	-66.395959
1.536745E-6	-66.346993
1.53679E-6	-66.757175
1.536835E-6	-67.859513
1.53688E-6	-70.566539
1.536925E-6	-75.004504
1.53697E-6	-78.745187
1.537015E-6	-80.656026
1.53706E-6	-80.056388
1.537105E-6	-76.476245
1.53715E-6	-70.358347
1.537195E-6	-56.955095
1.53724E-6	-42.748237
1.537285E-6	-37.715996
1.53733E-6	-35.667103
1.537375E-6	-35.195619
1.53742E-6	-35.144205
1.537465E-6	-35.191311
1.53751E-6	-35.228787
1.537555E-6	-35.679933
1.5376E-6	-37.804155
1.537645E-6	-42.502637
1.53769E-6	-52.517344
1.537735E-6	-61.929388
1.53778E-6	-69.673812
1.537825E-6	-74.595454
1.53787E-6	-77.878124
1.537915E-6	-79.645703
1.53796E-6	-78.716007
1.538005E-6	-74.373503
1.53805E-6	-69.888526
1.538095E-6	-67.559704
1.53814E-6	-66.836102
1.538185E-6	-66.940041
1.53823E-6	-66.96372
1.538275E-6	-66.92718
1.53832E-6	-66.920763
1.538365E-6	-67.101882
1.53841E-6	-68.23041
1.538455E-6	-70.611302
1.5385E-6	-74.824083
1.538545E-6	-79.755143
1.53859E-6	-83.36959
1.538635E-6	-79.991323
1.53868E-6	-75.52222
1.538725E-6	-71.114835
1.53877E-6	-59.273825
1.538815E-6	-43.795516
1.53886E-6	-38.210231
1.538905E-6	-35.912514
1.53895E-6	-35.380515
1.538995E-6	-35.290018
1.53904E-6	-35.246194
1.539085E-6	-35.233133
1.53913E-6	-35.534628
1.539175E-6	-37.389752
1.53922E-6	-41.836924
1.539265E-6	-51.286606
1.53931E-6	-62.652802
1.539355E-6	-69.161392
1.5394E-6	-74.348608
1.539445E-6	-77.85421
1.53949E-6	-79.562449
1.539535E-6	-78.774565
1.53958E-6	-74.14201
1.539625E-6	-69.909743
1.53967E-6	-67.459355
1.539715E-6	-66.802695
1.53976E-6	-66.671577
1.539805E-6	-66.643415
1.53985E-6	-66.593576
1.539895E-6	-66.663512
1.53994E-6	-66.710091
1.539985E-6	-67.814645
1.54003E-6	-70.168701
1.540075E-6	-74.218194
1.54012E-6	-78.4649
1.540165E-6	-79.147094
1.54021E-6	-79.215432
1.540255E-6	-76.922901
1.5403E-6	-72.17026
1.540345E-6	-61.394823
1.54039E-6	-46.120765
1.540435E-6	-38.551146
1.54048E-6	-35.977386
1.540525E-6	-35.310622
1.54057E-6	-35.145625
1.540615E-6	-35.089186
1.54066E-6	-35.05289
1.540705E-6	-35.306199
1.54075E-6	-36.895191
1.540795E-6	-40.815503
1.54084E-6	-49.763361
1.540885E-6	-61.411621
1.54093E-6	-67.891466
1.540975E-6	-73.623102
1.54102E-6	-77.173779
1.541065E-6	-79.430951
1.54111E-6	-79.251836
1.541155E-6	-75.029321
1.5412E-6	-69.909743
1.541245E-6	-67.191941
1.54129E-6	-66.285627
1.541335E-6	-66.13501
1.54138E-6	-66.03452
1.541425E-6	-65.963648
1.54147E-6	-66.0206
1.541515E-6	-66.122543
1.54156E-6	-66.899443
1.541605E-6	-69.208188
1.54165E-6	-72.983457
1.541695E-6	-77.770236
1.54174E-6	-79.35542
1.541785E-6	-80.477889
1.54183E-6	-78.59492
1.541875E-6	-73.060094
1.54192E-6	-64.036229
1.541965E-6	-48.096683
1.54201E-6	-39.240882
1.542055E-6	-36.17983
1.5421E-6	-35.292956
1.542145E-6	-35.082182
1.54219E-6	-35.015516
1.542235E-6	-34.997635
1.54228E-6	-35.110265
1.542325E-6	-36.225116
1.54237E-6	-39.702105
1.542415E-6	-46.914356
1.54246E-6	-58.934691
1.542505E-6	-65.73977
1.54255E-6	-71.953836
1.542595E-6	-76.643415
1.54264E-6	-78.551146
1.542685E-6	-78.975663
1.54273E-6	-76.067759
1.542775E-6	-70.434474
1.54282E-6	-67.124222
1.542865E-6	-65.890541
1.54291E-6	-65.675117
1.542955E-6	-65.612995
1.543E-6	-65.797141
1.543045E-6	-65.616159
1.54309E-6	-65.649524
1.543135E-6	-66.158259
1.54318E-6	-67.966951
1.543225E-6	-71.193007
1.54327E-6	-76.360122
1.543315E-6	-79.344203
1.54336E-6	-80.534986
1.543405E-6	-79.069287
1.54345E-6	-74.052761
1.543495E-6	-68.082696
1.54354E-6	-51.923297
1.543585E-6	-40.9442
1.54363E-6	-36.869769
1.543675E-6	-35.463759
1.54372E-6	-35.171264
1.543765E-6	-35.108856
1.54381E-6	-35.061239
1.543855E-6	-35.100415
1.5439E-6	-35.762628
1.543945E-6	-38.377344
1.54399E-6	-43.919021
1.544035E-6	-55.747919
1.54408E-6	-63.505678
1.544125E-6	-70.066079
1.54417E-6	-75.303252
1.544215E-6	-78.218867
1.54426E-6	-79.562449
1.544305E-6	-77.164726
1.54435E-6	-71.584528
1.544395E-6	-67.413627
1.54444E-6	-65.823623
1.544485E-6	-65.331324
1.54453E-6	-65.290018
1.544575E-6	-65.31505
1.54462E-6	-65.253467
1.544665E-6	-65.291487
1.54471E-6	-65.477534
1.544755E-6	-66.806857
1.5448E-6	-69.710223
1.544845E-6	-74.690323
1.54489E-6	-78.389316
1.544935E-6	-79.108016
1.54498E-6	-78.674202
1.545025E-6	-76.241536
1.54507E-6	-70.309104
1.545115E-6	-56.759234
1.54516E-6	-42.952491
1.545205E-6	-37.77804
1.54525E-6	-35.734887
1.545295E-6	-35.179844
1.54534E-6	-35.097605
1.545385E-6	-35.072396
1.54543E-6	-35.064026
1.545475E-6	-35.395532
1.54552E-6	-37.185121
1.545565E-6	-41.366771
1.54561E-6	-50.596828
1.545655E-6	-62.082392
1.5457E-6	-68.569852
1.545745E-6	-73.91688
1.54579E-6	-77.464197
1.545835E-6	-79.259153
1.54588E-6	-78.810742
1.545925E-6	-73.782008
1.54597E-6	-68.857227
1.546015E-6	-66.154674
1.54606E-6	-65.310622
1.546105E-6	-65.197055
1.54615E-6	-65.117314
1.546195E-6	-65.097605
1.54624E-6	-65.118725
1.546285E-6	-65.223001
1.54633E-6	-66.06074
1.546375E-6	-68.569852
1.54642E-6	-72.171692
1.546465E-6	-77.295541
1.54651E-6	-79.689957
1.546555E-6	-79.888526
1.5466E-6	-78.449678
1.546645E-6	-73.371478
1.54669E-6	-64.480623
1.546735E-6	-49.041335
1.54678E-6	-39.637705
1.546825E-6	-36.443569
1.54687E-6	-35.434821
1.546915E-6	-35.22734
1.54696E-6	-35.182708
1.547005E-6	-35.176982
1.54705E-6	-35.276825
1.547095E-6	-36.217839
1.54714E-6	-39.385475
1.547185E-6	-45.861975
1.54723E-6	-57.87546
1.547275E-6	-65.148467
1.54732E-6	-71.276106
1.547365E-6	-75.850267
1.54741E-6	-79.0309
1.547455E-6	-78.87395
1.5475E-6	-76.320853
1.547545E-6	-70.711946
1.54759E-6	-66.842395
1.547635E-6	-65.472938
1.54768E-6	-65.100415
1.547725E-6	-65.0515
1.54777E-6	-65.055671
1.547815E-6	-65.100415
1.54786E-6	-65.157002
1.547905E-6	-65.456125
1.54795E-6	-66.978856
1.547995E-6	-69.875846
1.54804E-6	-74.958011
1.548085E-6	-79.157813
1.54813E-6	-78.667805
1.548175E-6	-78.931295
1.54822E-6	-75.73001
1.548265E-6	-69.722428
1.54831E-6	-55.662302
1.548355E-6	-42.471068
1.5484E-6	-37.572102
1.548445E-6	-35.736514
1.54849E-6	-35.233133
1.548535E-6	-35.145625
1.54858E-6	-35.127202
1.548625E-6	-35.132862
1.54867E-6	-35.488278
1.548715E-6	-37.340036
1.54876E-6	-41.814442
1.548805E-6	-51.346591
1.54885E-6	-62.418454
1.548895E-6	-68.961963
1.54894E-6	-74.029633
1.548985E-6	-77.89414
1.54903E-6	-81.025379
1.549075E-6	-79.574245
1.54912E-6	-73.873221
1.549165E-6	-68.833923
1.54921E-6	-66.066003
1.549255E-6	-65.15985
1.5493E-6	-65.09901
1.549345E-6	-65.05428
1.54939E-6	-65.086383
1.549435E-6	-65.134278
1.54948E-6	-65.189876
1.549525E-6	-65.977386
1.54957E-6	-68.130437
1.549615E-6	-72.015565
1.54966E-6	-76.852903
1.549705E-6	-79.193735
1.54975E-6	-79.366666
1.549795E-6	-78.124793
1.54984E-6	-73.591212
1.549885E-6	-65.457651
1.54993E-6	-49.952488
1.549975E-6	-40.013048
1.55002E-6	-36.532559
1.550065E-6	-35.413622
1.55011E-6	-35.184141
1.550155E-6	-35.16698
1.5502E-6	-35.15985
1.550245E-6	-35.192746
1.55029E-6	-35.807053
1.550335E-6	-38.483238
1.55038E-6	-44.221637
1.550425E-6	-56.287474
1.55047E-6	-63.698774
1.550515E-6	-70.322649
1.55056E-6	-75.676722
1.550605E-6	-78.452718
1.55065E-6	-78.794261
1.550695E-6	-76.827727
1.55074E-6	-71.332992
1.550785E-6	-67.221617
1.55083E-6	-65.550189
1.550875E-6	-65.104634
1.55092E-6	-65.05289
1.550965E-6	-64.960732
1.55101E-6	-64.970269
1.551055E-6	-65.032087
1.5511E-6	-65.247648
1.551145E-6	-66.401645
1.55119E-6	-69.450041
1.551235E-6	-73.856302
1.55128E-6	-77.90217
1.551325E-6	-79.511699
1.55137E-6	-78.860566
1.551415E-6	-76.675615
1.55146E-6	-71.671719
1.551505E-6	-61.04688
1.55155E-6	-46.183435
1.551595E-6	-38.548036
1.55164E-6	-35.949953
1.551685E-6	-35.310622
1.55173E-6	-35.181276
1.551775E-6	-35.162701
1.55182E-6	-35.137112
1.551865E-6	-35.278289
1.55191E-6	-36.563945
1.551955E-6	-40.084195
1.552E-6	-48.041003
1.552045E-6	-59.645703
1.55209E-6	-66.495581
1.552135E-6	-72.367218
1.55218E-6	-77.142177
1.552225E-6	-78.996295
1.55227E-6	-78.529423
1.552315E-6	-75.164127
1.55236E-6	-69.661743
1.552405E-6	-66.420652
1.55245E-6	-65.194182
1.552495E-6	-64.921441
1.55254E-6	-64.86516
1.552585E-6	-64.861168
1.55263E-6	-64.866492
1.552675E-6	-64.929541
1.55272E-6	-65.362563
1.552765E-6	-67.050931
1.55281E-6	-70.185438
1.552855E-6	-75.565805
1.5529E-6	-79.233596
1.552945E-6	-79.653715
1.55299E-6	-79.538952
1.553035E-6	-75.322439
1.55308E-6	-69.347939
1.553125E-6	-54.92684
1.55317E-6	-41.950432
1.553215E-6	-37.286231
1.55326E-6	-35.614577
1.553305E-6	-35.212892
1.55335E-6	-35.135695
1.553395E-6	-35.090588
1.55344E-6	-35.072396
1.553485E-6	-35.428754
1.55353E-6	-37.321246
1.553575E-6	-41.637392
1.55362E-6	-50.979427
1.553665E-6	-61.923297
1.55371E-6	-68.323873
1.553755E-6	-73.65422
1.5538E-6	-77.582046
1.553845E-6	-78.777841
1.55389E-6	-78.498578
1.553935E-6	-73.40369
1.55398E-6	-68.434508
1.554025E-6	-65.687971
1.55407E-6	-64.885177
1.554115E-6	-64.734023
1.55416E-6	-64.691602
1.554205E-6	-64.685211
1.55425E-6	-64.690323
1.554295E-6	-64.796475
1.55434E-6	-65.401554
1.554385E-6	-67.572102
1.55443E-6	-71.316495
1.554475E-6	-76.169031
1.55452E-6	-79.157813
1.554565E-6	-80.300253
1.55461E-6	-79.419538
1.554655E-6	-74.307432
1.5547E-6	-66.520848
1.554745E-6	-51.41523
1.55479E-6	-40.581409
1.554835E-6	-36.728455
1.55488E-6	-35.465288
1.554925E-6	-35.168408
1.55497E-6	-35.087784
1.555015E-6	-35.030704
1.55506E-6	-35.059846
1.555105E-6	-35.556429
1.55515E-6	-37.81202
1.555195E-6	-42.914941
1.55524E-6	-54.220489
1.555285E-6	-62.178141
1.55533E-6	-69.714287
1.555375E-6	-74.726279
1.55542E-6	-78.133261
1.555465E-6	-78.71924
1.55551E-6	-78.054857
1.555555E-6	-72.366469
1.5556E-6	-67.377863
1.555645E-6	-65.358086
1.55569E-6	-64.708264
1.555735E-6	-64.563044
1.55578E-6	-64.565528
1.555825E-6	-64.554359
1.55587E-6	-64.545692
1.555915E-6	-64.655931
1.55596E-6	-65.466817
1.556005E-6	-67.953375
1.55605E-6	-71.823024
1.556095E-6	-77.011469
1.55614E-6	-79.347939
1.556185E-6	-78.777841
1.55623E-6	-77.93444
1.556275E-6	-73.661277
1.55632E-6	-65.238933
1.556365E-6	-49.54677
1.55641E-6	-39.854795
1.556455E-6	-36.390281
1.5565E-6	-35.337257
1.556545E-6	-35.100415
1.55659E-6	-35.061239
1.556635E-6	-35.05289
1.55668E-6	-35.113083
1.556725E-6	-35.734887
1.55677E-6	-38.271053
1.556815E-6	-43.926522
1.55686E-6	-55.511392
1.556905E-6	-63.089185
1.55695E-6	-69.649707
1.556995E-6	-75.246194
1.55704E-6	-78.483238
1.557085E-6	-79.182927
1.55713E-6	-77.652297
1.557175E-6	-71.699891
1.55722E-6	-66.96372
1.557265E-6	-65.249102
1.55731E-6	-64.709548
1.557355E-6	-64.55312
1.5574E-6	-64.523483
1.557445E-6	-64.575481
1.55749E-6	-64.544455
1.557535E-6	-64.73144
1.55758E-6	-65.630427
1.557625E-6	-68.155925
1.55767E-6	-72.362726
1.557715E-6	-77.000571
1.55776E-6	-78.85389
1.557805E-6	-79.496202
1.55785E-6	-77.708303
1.557895E-6	-73.410352
1.55794E-6	-64.555599
1.557985E-6	-49.017025
1.55803E-6	-39.689957
1.558075E-6	-36.343249
1.55812E-6	-35.240384
1.558165E-6	-35.019653
1.55821E-6	-35.004504
1.558255E-6	-35.032087
1.5583E-6	-35.084982
1.558345E-6	-35.803746
1.55839E-6	-38.582368
1.558435E-6	-44.494048
1.55848E-6	-56.127882
1.558525E-6	-63.572388
1.55857E-6	-70.134522
1.558615E-6	-75.673513
1.55866E-6	-78.16161
1.558705E-6	-79.226321
1.55875E-6	-77.765041
1.558795E-6	-71.879561
1.55884E-6	-67.117508
1.558885E-6	-65.359578
1.55893E-6	-64.89455
1.558975E-6	-64.968906
1.55902E-6	-64.763836
1.559065E-6	-64.821446
1.55911E-6	-64.757337
1.559155E-6	-64.925489
1.5592E-6	-65.878756
1.559245E-6	-68.541823
1.55929E-6	-72.183164
1.559335E-6	-77.210179
1.55938E-6	-79.871628
1.559425E-6	-79.969705
1.55947E-6	-78.748442
1.559515E-6	-73.371478
1.55956E-6	-64.472101
1.559605E-6	-48.840568
1.55965E-6	-39.637705
1.559695E-6	-36.346993
1.55974E-6	-35.344684
1.559785E-6	-35.178413
1.55983E-6	-35.187007
1.559875E-6	-35.217222
1.55992E-6	-35.306199
1.559965E-6	-36.006725
1.56001E-6	-38.667805
1.560055E-6	-44.476969
1.5601E-6	-56.248853
1.560145E-6	-63.724293
1.56019E-6	-70.174574
1.560235E-6	-75.775743
1.56028E-6	-77.92635
1.560325E-6	-79.593977
1.56037E-6	-78.002448
1.560415E-6	-72.483361
1.56046E-6	-68.119156
1.560505E-6	-65.877075
1.56055E-6	-65.373026
1.560595E-6	-65.326879
1.56064E-6	-65.294425
1.560685E-6	-65.326879
1.56073E-6	-65.335773
1.560775E-6	-65.471407
1.56082E-6	-66.439741
1.560865E-6	-68.837244
1.56091E-6	-72.804201
1.560955E-6	-77.677665
1.561E-6	-80.892156
1.561045E-6	-80.86504
1.56109E-6	-81.472761
1.561135E-6	-81.270866
1.56118E-6	-80
1.561225E-6	-73.179452
1.56127E-6	-68.712777
1.561315E-6	-66.346993
1.56136E-6	-65.795491
1.561405E-6	-65.699249
1.56145E-6	-65.678327
1.561495E-6	-65.705707
1.56154E-6	-65.720273
1.561585E-6	-65.840256
1.56163E-6	-66.641411
1.561675E-6	-69.023957
1.56172E-6	-73.059215
1.561765E-6	-77.535014
1.56181E-6	-80.980515
1.561855E-6	-81.110347
1.5619E-6	-82.87182
1.561945E-6	-82.364971
1.56199E-6	-80.459506
1.562035E-6	-74.076012
1.56208E-6	-69.359166
1.562125E-6	-66.957249
1.56217E-6	-66.261689
1.562215E-6	-66.160052
1.56226E-6	-66.122543
1.562305E-6	-66.178028
1.56235E-6	-66.188849
1.562395E-6	-66.346993
1.56244E-6	-67.011469
1.562485E-6	-69.132843
1.56253E-6	-72.756422
1.562575E-6	-77.435228
1.56262E-6	-79.892761
1.562665E-6	-81.105862
1.56271E-6	-81.441176
1.562755E-6	-82.046762
1.5628E-6	-81.157145
1.562845E-6	-75.068209
1.56289E-6	-70.272882
1.562935E-6	-67.544873
1.56298E-6	-66.761294
1.563025E-6	-66.589614
1.56307E-6	-66.540385
1.563115E-6	-66.643415
1.56316E-6	-66.699923
1.563205E-6	-66.773673
1.56325E-6	-67.297871
1.563295E-6	-69.233596
1.56334E-6	-72.733543
1.563385E-6	-77.780644
1.56343E-6	-81.04467
1.563475E-6	-81.136785
1.56352E-6	-81.733422
1.563565E-6	-81.920593
1.56361E-6	-81.402614
1.563655E-6	-76.792308
1.5637E-6	-71.251704
1.563745E-6	-68.437538
1.56379E-6	-67.401673
1.563835E-6	-67.153437
1.56388E-6	-67.119745
1.563925E-6	-67.210179
1.56397E-6	-67.194216
1.564015E-6	-67.274622
1.56406E-6	-67.71343
1.564105E-6	-69.480761
1.56415E-6	-72.616159
1.564195E-6	-77.288557
1.56424E-6	-80.645935
1.564285E-6	-81.480693
1.56433E-6	-81.328272
1.564375E-6	-81.341265
1.56442E-6	-81.47642
1.564465E-6	-78.398317
1.56451E-6	-72.31732
1.564555E-6	-69.321855
1.5646E-6	-67.983298
1.564645E-6	-67.796304
1.56469E-6	-67.74174
1.564735E-6	-67.754669
1.56478E-6	-67.896815
1.564825E-6	-67.883456
1.56487E-6	-68.297383
1.564915E-6	-69.550685
1.56496E-6	-72.576677
1.565005E-6	-77.508016
1.56505E-6	-80.454198
1.565095E-6	-81.985963
1.56514E-6	-81.82633
1.565185E-6	-82.305488
1.56523E-6	-82.027325
1.565275E-6	-79.037854
1.56532E-6	-73.434227
1.565365E-6	-70.145286
1.56541E-6	-68.745187
1.565455E-6	-68.51089
1.5655E-6	-68.404328
1.565545E-6	-68.428456
1.56559E-6	-68.443604
1.565635E-6	-68.44664
1.56568E-6	-68.758219
1.565725E-6	-69.922522
1.56577E-6	-72.76052
1.565815E-6	-77.044329
1.56586E-6	-80.459988
1.565905E-6	-82.751509
1.56595E-6	-81.734069
1.565995E-6	-83.922234
1.56604E-6	-81.803245
1.566085E-6	-80.35222
1.56613E-6	-74.943075
1.566175E-6	-71.191864
1.56622E-6	-69.511699
1.566265E-6	-69.093893
1.56631E-6	-69.086848
1.566355E-6	-69.100949
1.5664E-6	-69.182927
1.566445E-6	-69.157813
1.56649E-6	-69.295927
1.566535E-6	-70.222764
1.56658E-6	-72.594005
1.566625E-6	-76.802695
1.56667E-6	-80.05991
1.566715E-6	-82.336615
1.56676E-6	-81.730187
1.566805E-6	-81.499054
1.56685E-6	-81.766562
1.566895E-6	-81.229744
1.56694E-6	-76.315272
1.566985E-6	-72.48952
1.56703E-6	-70.406247
1.567075E-6	-69.854795
1.56712E-6	-69.714287
1.567165E-6	-69.804683
1.56721E-6	-69.792245
1.567255E-6	-69.738755
1.5673E-6	-70.023515
1.567345E-6	-70.655015
1.56739E-6	-72.549252
1.567435E-6	-75.83859
1.56748E-6	-80.054629
1.567525E-6	-81.919917
1.56757E-6	-82.703493
1.567615E-6	-83.392294
1.56766E-6	-82.050939
1.567705E-6	-80.813931
1.56775E-6	-78.043771
1.567795E-6	-73.729415
1.56784E-6	-71.234358
1.567885E-6	-70.517827
1.56793E-6	-70.44168
1.567975E-6	-70.434474
1.56802E-6	-70.370627
1.568065E-6	-70.538918
1.56811E-6	-70.60331
1.568155E-6	-71.122702
1.5682E-6	-72.657604
1.568245E-6	-76.176227
1.56829E-6	-79.965395
1.568335E-6	-81.435732
1.56838E-6	-82.51812
1.568425E-6	-82.080288
1.56847E-6	-83.083881
1.568515E-6	-83.077702
1.56856E-6	-80.689492
1.568605E-6	-74.972998
1.56865E-6	-72.099965
1.568695E-6	-71.315907
1.56874E-6	-71.284854
1.568785E-6	-71.067377
1.56883E-6	-71.097467
1.568875E-6	-71.11259
1.56892E-6	-71.408617
1.568965E-6	-71.573284
1.56901E-6	-72.880241
1.569055E-6	-75.821963
1.5691E-6	-79.542859
1.569145E-6	-82.642415
1.56919E-6	-82.727028
1.569235E-6	-82.35077
1.56928E-6	-82.483361
1.569325E-6	-81.89902
1.56937E-6	-81.717269
1.569415E-6	-76.156466
1.56946E-6	-73.588235
1.569505E-6	-72.03981
1.56955E-6	-71.783555
1.569595E-6	-71.78683
1.56964E-6	-71.870198
1.569685E-6	-71.773743
1.56973E-6	-71.877553
1.569775E-6	-72.161679
1.56982E-6	-72.931969
1.569865E-6	-75.479068
1.56991E-6	-78.797552
1.569955E-6	-81.636126
1.57E-6	-81.832948
