Wavelength (nm)	Power (dBm)
1.525E-6	-68.958544
1.525045E-6	-68.975663
1.52509E-6	-69.408154
1.525135E-6	-71.285438
1.52518E-6	-74.631891
1.525225E-6	-78.722475
1.52527E-6	-80.039263
1.525315E-6	-81.202162
1.52536E-6	-81.024829
1.525405E-6	-80.595333
1.52545E-6	-79.058784
1.525495E-6	-73.627105
1.52554E-6	-70.062112
1.525585E-6	-68.365404
1.52563E-6	-67.830428
1.525675E-6	-67.587026
1.52572E-6	-67.473897
1.525765E-6	-67.46662
1.52581E-6	-67.108572
1.525855E-6	-67.539941
1.5259E-6	-69.182927
1.525945E-6	-72.498775
1.52599E-6	-77.233085
1.526035E-6	-79.649707
1.52608E-6	-80.40577
1.526125E-6	-80.14349
1.52617E-6	-80.283995
1.526215E-6	-79.259153
1.52626E-6	-73.794476
1.526305E-6	-69.30702
1.52635E-6	-67.044329
1.526395E-6	-66.38839
1.52644E-6	-66.197888
1.526485E-6	-66.110112
1.52653E-6	-65.975667
1.526575E-6	-65.953373
1.52662E-6	-66.115435
1.526665E-6	-67.418418
1.52671E-6	-70.048476
1.526755E-6	-74.723701
1.5268E-6	-79.211808
1.526845E-6	-79.812995
1.52689E-6	-79.34047
1.526935E-6	-80.885228
1.52698E-6	-79.538952
1.527025E-6	-74.518564
1.52707E-6	-69.020489
1.527115E-6	-66.206945
1.52716E-6	-65.233133
1.527205E-6	-64.962093
1.52725E-6	-64.854522
1.527295E-6	-64.837291
1.52734E-6	-64.78339
1.527385E-6	-64.800408
1.52743E-6	-65.749551
1.527475E-6	-68.365404
1.52752E-6	-72.53833
1.527565E-6	-77.872798
1.52761E-6	-79.633711
1.527655E-6	-80.774302
1.5277E-6	-80.084195
1.527745E-6	-80.225965
1.52779E-6	-75.210009
1.527835E-6	-69.273825
1.52788E-6	-65.608253
1.527925E-6	-64.339162
1.52797E-6	-63.978314
1.528015E-6	-63.861582
1.52806E-6	-63.815335
1.528105E-6	-63.748934
1.52815E-6	-63.774751
1.528195E-6	-64.36875
1.52824E-6	-66.358244
1.528285E-6	-70.041455
1.52833E-6	-75.663902
1.528375E-6	-78.877302
1.52842E-6	-80.077559
1.528465E-6	-79.93534
1.52851E-6	-80.184532
1.528555E-6	-76.873996
1.5286E-6	-70.139901
1.528645E-6	-65.611413
1.52869E-6	-63.698774
1.528735E-6	-63.122927
1.52878E-6	-63.045183
1.528825E-6	-63.035562
1.52887E-6	-62.97828
1.528915E-6	-62.908997
1.52896E-6	-63.247717
1.529005E-6	-64.763836
1.52905E-6	-68.419392
1.529095E-6	-73.226668
1.52914E-6	-78.016179
1.529185E-6	-80.215456
1.52923E-6	-80.292348
1.529275E-6	-79.519468
1.52932E-6	-78.265224
1.529365E-6	-71.84024
1.52941E-6	-66.046736
1.529455E-6	-63.562513
1.5295E-6	-62.739251
1.529545E-6	-62.438966
1.52959E-6	-62.380722
1.529635E-6	-62.352263
1.52968E-6	-62.30475
1.529725E-6	-62.430598
1.52977E-6	-63.457272
1.529815E-6	-66.311555
1.52986E-6	-70.78886
1.529905E-6	-76.333903
1.52995E-6	-79.677843
1.529995E-6	-80.012177
1.53004E-6	-80.204516
1.530085E-6	-79.404366
1.53013E-6	-73.955579
1.530175E-6	-67.035542
1.53022E-6	-63.702847
1.530265E-6	-62.4071
1.53031E-6	-62.062794
1.530355E-6	-62.018329
1.5304E-6	-61.994891
1.530445E-6	-61.970895
1.53049E-6	-62.010733
1.530535E-6	-62.648804
1.53058E-6	-64.726279
1.530625E-6	-69.111554
1.53067E-6	-74.270123
1.530715E-6	-78.492436
1.53076E-6	-79.41574
1.530805E-6	-79.329291
1.53085E-6	-79.863203
1.530895E-6	-76.449318
1.53094E-6	-69.111554
1.530985E-6	-64.350973
1.53103E-6	-62.437444
1.531075E-6	-61.888944
1.53112E-6	-61.780282
1.531165E-6	-61.747687
1.53121E-6	-61.737308
1.531255E-6	-61.747037
1.5313E-6	-62.068385
1.531345E-6	-63.541849
1.53139E-6	-67.013652
1.531435E-6	-71.854195
1.53148E-6	-77.647241
1.531525E-6	-78.827287
1.53157E-6	-80.211806
1.531615E-6	-79.991323
1.53166E-6	-78.477117
1.531705E-6	-71.534155
1.53175E-6	-65.502132
1.531795E-6	-62.892904
1.53184E-6	-61.989395
1.531885E-6	-61.806535
1.53193E-6	-61.803245
1.531975E-6	-61.825007
1.53202E-6	-61.819722
1.532065E-6	-61.886261
1.53211E-6	-62.790968
1.532155E-6	-65.394028
1.5322E-6	-69.767475
1.532245E-6	-75.926091
1.53229E-6	-78.790972
1.532335E-6	-79.673812
1.53238E-6	-79.484616
1.532425E-6	-78.76475
1.53247E-6	-74.6572
1.532515E-6	-67.432823
1.53256E-6	-63.840499
1.532605E-6	-62.332898
1.53265E-6	-61.949071
1.532695E-6	-61.833611
1.53274E-6	-61.88157
1.532785E-6	-61.905076
1.53283E-6	-61.947711
1.532875E-6	-62.525105
1.53292E-6	-64.36875
1.532965E-6	-68.483238
1.53301E-6	-73.491099
1.533055E-6	-77.806775
1.5331E-6	-79.147094
1.533145E-6	-79.722428
1.53319E-6	-79.3968
1.533235E-6	-78.119156
1.53328E-6	-70.649464
1.533325E-6	-65.508303
1.53337E-6	-63.188493
1.533415E-6	-62.487979
1.53346E-6	-62.38448
1.533505E-6	-62.370215
1.53355E-6	-62.452695
1.533595E-6	-62.492602
1.53364E-6	-62.834958
1.533685E-6	-63.988095
1.53373E-6	-66.905828
1.533775E-6	-71.380476
1.53382E-6	-76.867657
1.533865E-6	-78.810742
1.53391E-6	-79.613798
1.533955E-6	-79.222688
1.534E-6	-79.333014
1.534045E-6	-74.29107
1.53409E-6	-68.320922
1.534135E-6	-64.695442
1.53418E-6	-63.534002
1.534225E-6	-63.239469
1.53427E-6	-63.277174
1.534315E-6	-63.279946
1.53436E-6	-63.332013
1.534405E-6	-63.401788
1.53445E-6	-64.030732
1.534495E-6	-66.071273
1.53454E-6	-69.582127
1.534585E-6	-75.110265
1.53463E-6	-78.90759
1.534675E-6	-79.115095
1.53472E-6	-79.484616
1.534765E-6	-79.771594
1.53481E-6	-77.207895
1.534855E-6	-71.283687
1.5349E-6	-66.550186
1.534945E-6	-64.616777
1.53499E-6	-64.08824
1.535035E-6	-64.018664
1.53508E-6	-64.026339
1.535125E-6	-64.068247
1.53517E-6	-64.151037
1.535215E-6	-64.436975
1.53526E-6	-65.655908
1.535305E-6	-68.677403
1.53535E-6	-73.067128
1.535395E-6	-77.396901
1.53544E-6	-78.44057
1.535485E-6	-77.8199
1.53553E-6	-74.596705
1.535575E-6	-68.931295
1.53562E-6	-55.208568
1.535665E-6	-41.574532
1.53571E-6	-36.505282
1.535755E-6	-34.546929
1.5358E-6	-34.096041
1.535845E-6	-34.136378
1.53589E-6	-34.233132
1.535935E-6	-34.335625
1.53598E-6	-34.862498
1.536025E-6	-37.088532
1.53607E-6	-42.022479
1.536115E-6	-52.292952
1.53616E-6	-61.397818
1.536205E-6	-69.215432
1.53625E-6	-74.025242
1.536295E-6	-76.92504
1.53634E-6	-78.716007
1.536385E-6	-77.382615
1.53643E-6	-72.142432
1.536475E-6	-67.731424
1.53652E-6	-65.873715
1.536565E-6	-65.389519
1.53661E-6	-65.358086
1.536655E-6	-65.37153
1.5367E-6	-65.394028
1.536745E-6	-65.451551
1.53679E-6	-65.665502
1.536835E-6	-66.903698
1.53688E-6	-69.519468
1.536925E-6	-73.950184
1.53697E-6	-77.939841
1.537015E-6	-78.389316
1.53706E-6	-77.670039
1.537105E-6	-75.096201
1.53715E-6	-69.136402
1.537195E-6	-55.545515
1.53724E-6	-41.615917
1.537285E-6	-36.577748
1.53733E-6	-34.609239
1.537375E-6	-34.152166
1.53742E-6	-34.153296
1.537465E-6	-34.171415
1.53751E-6	-34.180503
1.537555E-6	-34.67373
1.5376E-6	-36.850799
1.537645E-6	-41.683222
1.53769E-6	-51.810487
1.537735E-6	-61.009459
1.53778E-6	-68.992849
1.537825E-6	-73.632113
1.53787E-6	-77.33298
1.537915E-6	-77.801536
1.53796E-6	-77.469044
1.538005E-6	-72.905604
1.53805E-6	-68.738686
1.538095E-6	-66.575773
1.53814E-6	-65.977386
1.538185E-6	-65.853609
1.53823E-6	-65.883803
1.538275E-6	-65.840256
1.53832E-6	-65.877075
1.538365E-6	-66.057235
1.53841E-6	-67.198771
1.538455E-6	-69.829667
1.5385E-6	-73.949105
1.538545E-6	-78.300318
1.53859E-6	-78.601209
1.538635E-6	-78.407337
1.53868E-6	-75.43634
1.538725E-6	-70.168249
1.53877E-6	-57.191941
1.538815E-6	-42.648804
1.53886E-6	-37.070797
1.538905E-6	-34.94172
1.53895E-6	-34.369938
1.538995E-6	-34.250432
1.53904E-6	-34.226231
1.539085E-6	-34.211317
1.53913E-6	-34.534573
1.539175E-6	-36.466609
1.53922E-6	-40.882566
1.539265E-6	-50.53646
1.53931E-6	-61.866192
1.539355E-6	-68.22175
1.5394E-6	-73.377145
1.539445E-6	-76.767479
1.53949E-6	-78.253588
1.539535E-6	-77.75726
1.53958E-6	-73.160529
1.539625E-6	-68.693447
1.53967E-6	-66.462761
1.539715E-6	-65.805399
1.53976E-6	-65.638374
1.539805E-6	-65.638374
1.53985E-6	-65.619325
1.539895E-6	-65.630427
1.53994E-6	-65.76918
1.539985E-6	-66.804776
1.54003E-6	-69.566377
1.540075E-6	-73.389449
1.54012E-6	-77.142177
1.540165E-6	-78.716007
1.54021E-6	-78.471004
1.540255E-6	-75.985995
1.5403E-6	-70.900163
1.540345E-6	-59.92679
1.54039E-6	-43.521282
1.540435E-6	-37.483618
1.54048E-6	-35.043169
1.540525E-6	-34.284076
1.54057E-6	-34.148778
1.540615E-6	-34.06271
1.54066E-6	-34.030732
1.540705E-6	-34.282912
1.54075E-6	-35.931193
1.540795E-6	-39.969705
1.54084E-6	-48.833923
1.540885E-6	-60.486625
1.54093E-6	-67.053134
1.540975E-6	-72.373214
1.54102E-6	-76.439741
1.541065E-6	-78.052082
1.54111E-6	-77.964232
1.541155E-6	-73.692671
1.5412E-6	-68.732194
1.541245E-6	-66.081831
1.54129E-6	-65.281218
1.541335E-6	-65.122961
1.54138E-6	-65.072396
1.541425E-6	-64.962093
1.54147E-6	-65.030704
1.541515E-6	-65.175552
1.54156E-6	-65.927791
1.541605E-6	-68.224635
1.54165E-6	-71.866192
1.541695E-6	-76.914356
1.54174E-6	-78.407337
1.541785E-6	-78.523237
1.54183E-6	-76.511113
1.541875E-6	-71.816421
1.54192E-6	-62.745784
1.541965E-6	-46.895191
1.54201E-6	-38.093882
1.542055E-6	-35.233133
1.5421E-6	-34.280584
1.542145E-6	-34.08824
1.54219E-6	-34.015378
1.542235E-6	-33.980486
1.54228E-6	-34.091582
1.542325E-6	-35.259295
1.54237E-6	-38.800846
1.542415E-6	-46.174427
1.54246E-6	-57.988761
1.542505E-6	-65.072396
1.54255E-6	-70.973989
1.542595E-6	-75.578339
1.54264E-6	-77.532553
1.542685E-6	-78.377344
1.54273E-6	-74.568014
1.542775E-6	-69.262816
1.54282E-6	-65.998075
1.542865E-6	-64.90663
1.54291E-6	-64.662279
1.542955E-6	-64.61175
1.543E-6	-64.616777
1.543045E-6	-64.561802
1.54309E-6	-64.62055
1.543135E-6	-65.134278
1.54318E-6	-67.066374
1.543225E-6	-70.395292
1.54327E-6	-75.331324
1.543315E-6	-78.013429
1.54336E-6	-77.81202
1.543405E-6	-77.097427
1.54345E-6	-73.361107
1.543495E-6	-65.944829
1.54354E-6	-50.608803
1.543585E-6	-39.788107
1.54363E-6	-35.831931
1.543675E-6	-34.42132
1.54372E-6	-34.151037
1.543765E-6	-34.05497
1.54381E-6	-34.020855
1.543855E-6	-34.063817
1.5439E-6	-34.739193
1.543945E-6	-37.406451
1.54399E-6	-43.089185
1.544035E-6	-54.968906
1.54408E-6	-62.699448
1.544125E-6	-69.186527
1.54417E-6	-74.221637
1.544215E-6	-77.515363
1.54426E-6	-78.021683
1.544305E-6	-76.407338
1.54435E-6	-70.57149
1.544395E-6	-66.395959
1.54444E-6	-64.756039
1.544485E-6	-64.349791
1.54453E-6	-64.278257
1.544575E-6	-64.315636
1.54462E-6	-64.298074
1.544665E-6	-64.287571
1.54471E-6	-64.615519
1.544755E-6	-65.914209
1.5448E-6	-69.129288
1.544845E-6	-73.361107
1.54489E-6	-77.542406
1.544935E-6	-78.407337
1.54498E-6	-78.155925
1.545025E-6	-74.952574
1.54507E-6	-69.179331
1.545115E-6	-55.465288
1.54516E-6	-41.780936
1.545205E-6	-36.659486
1.54525E-6	-34.692882
1.545295E-6	-34.19189
1.54534E-6	-34.091582
1.545385E-6	-34.052761
1.54543E-6	-34.070464
1.545475E-6	-34.386601
1.54552E-6	-36.250684
1.545565E-6	-40.55172
1.54561E-6	-49.931063
1.545655E-6	-61.176463
1.5457E-6	-67.582046
1.545745E-6	-72.837462
1.54579E-6	-76.076548
1.545835E-6	-77.351822
1.54588E-6	-77.276942
1.545925E-6	-72.55707
1.54597E-6	-67.423214
1.546015E-6	-65.058454
1.54606E-6	-64.32856
1.546105E-6	-64.180503
1.54615E-6	-64.134127
1.546195E-6	-64.124013
1.54624E-6	-64.108326
1.546285E-6	-64.246967
1.54633E-6	-65.015516
1.546375E-6	-67.530093
1.54642E-6	-71.272612
1.546465E-6	-76.17983
1.54651E-6	-77.542406
1.546555E-6	-78.195874
1.5466E-6	-76.74074
1.546645E-6	-72.034257
1.54669E-6	-62.981731
1.546735E-6	-47.579558
1.54678E-6	-38.434508
1.546825E-6	-35.415132
1.54687E-6	-34.314463
1.546915E-6	-34.128505
1.54696E-6	-34.073792
1.547005E-6	-34.061603
1.54705E-6	-34.174821
1.547095E-6	-35.161275
1.54714E-6	-38.374356
1.547185E-6	-44.996263
1.54723E-6	-57.189666
1.547275E-6	-64.285241
1.54732E-6	-70.380097
1.547365E-6	-74.851867
1.54741E-6	-76.838199
1.547455E-6	-78.4649
1.5475E-6	-75.377518
1.547545E-6	-69.523358
1.54759E-6	-65.831931
1.547635E-6	-64.444219
1.54768E-6	-64.116162
1.547725E-6	-64.06271
1.54777E-6	-64.071573
1.547815E-6	-64.098272
1.54786E-6	-64.100504
1.547905E-6	-64.48672
1.54795E-6	-66.078309
1.547995E-6	-69.605859
1.54804E-6	-74.173686
1.548085E-6	-77.81202
1.54813E-6	-78.610661
1.548175E-6	-77.478754
1.54822E-6	-74.7379
1.548265E-6	-68.741935
1.54831E-6	-54.479405
1.548355E-6	-41.328862
1.5484E-6	-36.50334
1.548445E-6	-34.672456
1.54849E-6	-34.199879
1.548535E-6	-34.100504
1.54858E-6	-34.097156
1.548625E-6	-34.101621
1.54867E-6	-34.459957
1.548715E-6	-36.413039
1.54876E-6	-40.937727
1.548805E-6	-50.623317
1.54885E-6	-61.747687
1.548895E-6	-67.953375
1.54894E-6	-73.277174
1.548985E-6	-76.478175
1.54903E-6	-77.736579
1.549075E-6	-77.242281
1.54912E-6	-72.277517
1.549165E-6	-67.342391
1.54921E-6	-65.03901
1.549255E-6	-64.259687
1.5493E-6	-64.124013
1.549345E-6	-64.097156
1.54939E-6	-64.094925
1.549435E-6	-64.081566
1.54948E-6	-64.22738
1.549525E-6	-64.933597
1.54957E-6	-67.307206
1.549615E-6	-71.030331
1.54966E-6	-75.956795
1.549705E-6	-78.443604
1.54975E-6	-77.961515
1.549795E-6	-76.633402
1.54984E-6	-72.58612
1.549885E-6	-64.180503
1.54993E-6	-48.741935
1.549975E-6	-38.880657
1.55002E-6	-35.581478
1.550065E-6	-34.409317
1.55011E-6	-34.165745
1.550155E-6	-34.147649
1.5502E-6	-34.137504
1.550245E-6	-34.187332
1.55029E-6	-34.855851
1.550335E-6	-37.579558
1.55038E-6	-43.336693
1.550425E-6	-55.564241
1.55047E-6	-63.017254
1.550515E-6	-69.434763
1.55056E-6	-74.474535
1.550605E-6	-77.142177
1.55065E-6	-77.830428
1.550695E-6	-76.031036
1.55074E-6	-70.216825
1.550785E-6	-66.221476
1.55083E-6	-64.560561
1.550875E-6	-64.090468
1.55092E-6	-64.012095
1.550965E-6	-63.955579
1.55101E-6	-64.001169
1.551055E-6	-64.003352
1.5511E-6	-64.206738
1.551145E-6	-65.440898
1.55119E-6	-68.629625
1.551235E-6	-72.90052
1.55128E-6	-76.965879
1.551325E-6	-78.198741
1.55137E-6	-78.127614
1.551415E-6	-75.792194
1.55146E-6	-70.493918
1.551505E-6	-59.738755
1.55155E-6	-43.653212
1.551595E-6	-37.416022
1.55164E-6	-34.996263
1.551685E-6	-34.274769
1.55173E-6	-34.125135
1.551775E-6	-34.10609
1.55182E-6	-34.096041
1.551865E-6	-34.263163
1.55191E-6	-35.598784
1.551955E-6	-39.3968
1.552E-6	-47.013652
1.552045E-6	-58.860566
1.55209E-6	-65.673513
1.552135E-6	-71.465452
1.55218E-6	-75.537736
1.552225E-6	-77.223908
1.55227E-6	-77.74174
1.552315E-6	-74.031831
1.55236E-6	-68.664611
1.552405E-6	-65.312097
1.55245E-6	-64.17823
1.552495E-6	-63.889143
1.55254E-6	-63.843655
1.552585E-6	-63.881705
1.55263E-6	-63.823707
1.552675E-6	-63.889143
1.55272E-6	-64.314463
1.552765E-6	-66.126102
1.55281E-6	-69.284862
1.552855E-6	-74.321505
1.5529E-6	-77.718564
1.552945E-6	-78.233301
1.55299E-6	-77.230789
1.553035E-6	-74.365189
1.55308E-6	-68.099486
1.553125E-6	-53.481407
1.55317E-6	-40.858156
1.553215E-6	-36.223296
1.55326E-6	-34.579219
1.553305E-6	-34.170281
1.55335E-6	-34.100504
1.553395E-6	-34.043936
1.55344E-6	-34.048346
1.553485E-6	-34.42132
1.55353E-6	-36.35074
1.553575E-6	-40.726296
1.55362E-6	-50.372993
1.553665E-6	-61.21938
1.55371E-6	-67.532553
1.553755E-6	-72.821631
1.5538E-6	-76.701955
1.553845E-6	-77.444863
1.55389E-6	-77.772835
1.553935E-6	-72.327699
1.55398E-6	-67.035542
1.554025E-6	-64.658469
1.55407E-6	-63.854191
1.554115E-6	-63.726341
1.55416E-6	-63.744818
1.554205E-6	-63.694704
1.55425E-6	-63.680492
1.554295E-6	-63.749964
1.55434E-6	-64.458744
1.554385E-6	-66.560009
1.55443E-6	-70.211806
1.554475E-6	-75.374523
1.55452E-6	-77.77804
1.554565E-6	-77.447275
1.55461E-6	-75.963648
1.554655E-6	-73.022477
1.5547E-6	-65.425723
1.554745E-6	-50.25028
1.55479E-6	-39.41574
1.554835E-6	-35.797141
1.55488E-6	-34.387793
1.554925E-6	-34.112802
1.55497E-6	-34.063817
1.555015E-6	-34.018664
1.55506E-6	-34.038429
1.555105E-6	-34.530874
1.55515E-6	-36.79646
1.555195E-6	-42.078185
1.55524E-6	-52.514244
1.555285E-6	-61.198727
1.55533E-6	-68.814046
1.555375E-6	-73.615107
1.55542E-6	-76.948637
1.555465E-6	-77.715996
1.55551E-6	-76.587634
1.555555E-6	-71.164521
1.5556E-6	-66.332036
1.555645E-6	-64.312118
1.55569E-6	-63.658251
1.555735E-6	-63.508599
1.55578E-6	-63.48722
1.555825E-6	-63.518352
1.55587E-6	-63.5635
1.555915E-6	-63.662287
1.55596E-6	-64.53334
1.556005E-6	-67.031155
1.55605E-6	-70.878843
1.556095E-6	-75.96022
1.55614E-6	-78.392314
1.556185E-6	-78.091083
1.55623E-6	-76.188849
1.556275E-6	-72.366469
1.55632E-6	-63.940488
1.556365E-6	-48.279812
1.55641E-6	-38.696662
1.556455E-6	-35.404567
1.5565E-6	-34.196453
1.556545E-6	-33.980486
1.55659E-6	-33.95882
1.556635E-6	-33.944795
1.55668E-6	-34.000078
1.556725E-6	-34.666093
1.55677E-6	-37.269987
1.556815E-6	-42.995559
1.55686E-6	-54.571746
1.556905E-6	-62.198268
1.55695E-6	-69.457701
1.556995E-6	-74.223933
1.55704E-6	-76.697892
1.557085E-6	-77.644716
1.55713E-6	-75.970512
1.557175E-6	-70.680847
1.55722E-6	-66.011923
1.557265E-6	-64.146521
1.55731E-6	-63.624102
1.557355E-6	-63.577334
1.5574E-6	-63.52617
1.557445E-6	-63.5635
1.55749E-6	-63.552661
1.557535E-6	-63.679478
1.55758E-6	-64.638205
1.557625E-6	-67.363639
1.55767E-6	-71.35311
1.557715E-6	-76.185239
1.55776E-6	-77.87546
1.557805E-6	-77.920965
1.55785E-6	-76.895191
1.557895E-6	-71.942274
1.55794E-6	-63.269791
1.557985E-6	-47.698066
1.55803E-6	-38.566729
1.558075E-6	-35.413622
1.55812E-6	-34.202164
1.558165E-6	-34.001169
1.55821E-6	-33.982659
1.558255E-6	-33.987007
1.5583E-6	-34.05497
1.558345E-6	-34.803032
1.55839E-6	-37.624563
1.558435E-6	-43.449577
1.55848E-6	-55.278289
1.558525E-6	-62.780246
1.55857E-6	-69.125735
1.558615E-6	-74.758636
1.55866E-6	-77.522722
1.558705E-6	-78.489367
1.55875E-6	-76.635403
1.558795E-6	-70.726296
1.55884E-6	-66.092415
1.558885E-6	-64.337983
1.55893E-6	-63.798639
1.558975E-6	-63.784083
1.55902E-6	-63.747905
1.559065E-6	-63.808023
1.55911E-6	-63.760275
1.559155E-6	-63.927595
1.5592E-6	-64.889192
1.559245E-6	-67.375489
1.55929E-6	-71.657701
1.559335E-6	-76.827727
1.55938E-6	-78.37137
1.559425E-6	-77.838341
1.55947E-6	-76.827727
1.559515E-6	-72.130357
1.55956E-6	-63.32547
1.559605E-6	-47.915586
1.55965E-6	-38.544928
1.559695E-6	-35.425723
1.55974E-6	-34.320331
1.559785E-6	-34.148778
1.55983E-6	-34.156688
1.559875E-6	-34.195312
1.55992E-6	-34.280584
1.559965E-6	-35.037625
1.56001E-6	-37.77804
1.560055E-6	-43.78616
1.5601E-6	-55.132862
1.560145E-6	-62.816644
1.56019E-6	-69.430951
1.560235E-6	-74.721124
1.56028E-6	-77.121983
1.560325E-6	-77.703182
1.56037E-6	-76.905828
1.560415E-6	-71.249966
1.56046E-6	-66.78816
1.560505E-6	-64.878495
1.56055E-6	-64.325031
1.560595E-6	-64.282912
1.56064E-6	-64.287571
1.560685E-6	-64.285241
1.56073E-6	-64.341522
1.560775E-6	-64.46117
1.56082E-6	-65.428754
1.560865E-6	-67.956087
1.56091E-6	-71.942953
1.560955E-6	-76.639407
1.561E-6	-79.461536
1.561045E-6	-79.597934
1.56109E-6	-79.846402
1.561135E-6	-79.161392
1.56118E-6	-78.210231
1.561225E-6	-71.909793
1.56127E-6	-67.217038
1.561315E-6	-65.36107
1.56136E-6	-64.757337
1.561405E-6	-64.653394
1.56145E-6	-64.701848
1.561495E-6	-64.685211
1.56154E-6	-64.712118
1.561585E-6	-64.832003
1.56163E-6	-65.765903
1.561675E-6	-68.071539
1.56172E-6	-71.898347
1.561765E-6	-76.601512
1.56181E-6	-79.681877
1.561855E-6	-79.621752
1.5619E-6	-79.738755
1.561945E-6	-79.321855
1.56199E-6	-78.820662
1.562035E-6	-72.8208
1.56208E-6	-68.285661
1.562125E-6	-65.825283
1.56217E-6	-65.238933
1.562215E-6	-65.131446
1.56226E-6	-65.097605
1.562305E-6	-65.145625
1.56235E-6	-65.161275
1.562395E-6	-65.237482
1.56244E-6	-65.909126
1.562485E-6	-68.071539
1.56253E-6	-71.583277
1.562575E-6	-76.225116
1.56262E-6	-78.639139
1.562665E-6	-79.897
1.56271E-6	-79.164974
1.562755E-6	-80.295137
1.5628E-6	-79.118639
1.562845E-6	-73.679478
1.56289E-6	-69.136402
1.562935E-6	-66.432095
1.56298E-6	-65.726762
1.563025E-6	-65.601938
1.56307E-6	-65.572068
1.563115E-6	-65.598784
1.56316E-6	-65.696024
1.563205E-6	-65.736514
1.56325E-6	-66.392173
1.563295E-6	-68.326827
1.56334E-6	-71.665341
1.563385E-6	-77.394516
1.56343E-6	-79.50782
1.563475E-6	-79.812995
1.56352E-6	-80.3659
1.563565E-6	-79.550685
1.56361E-6	-79.817157
1.563655E-6	-74.9026
1.5637E-6	-70.189973
1.563745E-6	-67.31422
1.56379E-6	-66.337639
1.563835E-6	-66.158259
1.56388E-6	-66.085356
1.563925E-6	-66.208759
1.56397E-6	-66.172627
1.564015E-6	-66.332036
1.56406E-6	-66.819367
1.564105E-6	-68.38632
1.56415E-6	-71.258662
1.564195E-6	-76.120765
1.56424E-6	-79.344203
1.564285E-6	-79.605859
1.56433E-6	-79.653715
1.564375E-6	-79.476909
1.56442E-6	-79.273825
1.564465E-6	-76.35449
1.56451E-6	-71.024279
1.564555E-6	-68.147412
1.5646E-6	-66.907958
1.564645E-6	-66.759234
1.56469E-6	-66.728455
1.564735E-6	-66.728455
1.56478E-6	-66.771607
1.564825E-6	-66.937895
1.56487E-6	-67.217038
1.564915E-6	-68.706324
1.56496E-6	-71.529211
1.565005E-6	-76.104795
1.56505E-6	-79.255493
1.565095E-6	-79.538952
1.56514E-6	-78.833923
1.565185E-6	-80.163286
1.56523E-6	-79.931063
1.565275E-6	-77.980569
1.56532E-6	-72.330669
1.565365E-6	-69.104481
1.56541E-6	-67.659892
1.565455E-6	-67.318903
1.5655E-6	-67.335331
1.565545E-6	-67.411234
1.56559E-6	-67.515363
1.565635E-6	-67.454519
1.56568E-6	-67.859513
1.565725E-6	-68.968807
1.56577E-6	-71.541581
1.565815E-6	-75.694412
1.56586E-6	-78.683813
1.565905E-6	-80.479344
1.56595E-6	-79.948195
1.565995E-6	-80.393865
1.56604E-6	-80.313303
1.566085E-6	-78.693447
1.56613E-6	-73.629107
1.566175E-6	-70.218652
1.56622E-6	-68.419392
1.566265E-6	-68.04931
1.56631E-6	-68.021683
1.566355E-6	-68.016179
1.5664E-6	-68.074325
1.566445E-6	-68.119156
1.56649E-6	-68.27689
1.566535E-6	-69.226321
1.56658E-6	-71.407416
1.566625E-6	-75.756084
1.56667E-6	-78.955129
1.566715E-6	-80.489541
1.56676E-6	-80.842309
1.566805E-6	-80.285386
1.56685E-6	-79.952488
1.566895E-6	-79.484616
1.56694E-6	-74.586704
1.566985E-6	-71.304749
1.56703E-6	-69.318141
1.567075E-6	-68.771291
1.56712E-6	-68.674202
1.567165E-6	-68.645493
1.56721E-6	-68.741935
1.567255E-6	-68.76475
1.5673E-6	-68.85389
1.567345E-6	-69.578184
1.56739E-6	-71.664704
1.567435E-6	-75.263671
1.56748E-6	-78.664611
1.567525E-6	-79.763361
1.56757E-6	-80.050673
1.567615E-6	-80.257647
1.56766E-6	-80.394341
1.567705E-6	-80.480314
1.56775E-6	-76.687752
1.567795E-6	-72.438205
1.56784E-6	-70.295137
1.567885E-6	-69.496202
1.56793E-6	-69.321855
1.567975E-6	-69.362914
1.56802E-6	-69.442395
1.568065E-6	-69.446217
1.56811E-6	-69.41574
1.568155E-6	-69.905491
1.5682E-6	-71.681302
1.568245E-6	-75.149888
1.56829E-6	-78.639139
1.568335E-6	-79.446217
1.56838E-6	-80.732461
1.568425E-6	-80.740694
1.56847E-6	-80.300253
1.568515E-6	-80.491485
1.56856E-6	-78.37137
1.568605E-6	-73.607128
1.56865E-6	-71.159981
1.568695E-6	-70.195421
1.56874E-6	-70.072698
1.568785E-6	-70.038387
1.56883E-6	-70
1.568875E-6	-70.018279
1.56892E-6	-70.139452
1.568965E-6	-70.449861
1.56901E-6	-72.023171
1.569055E-6	-74.717262
1.5691E-6	-77.649768
1.569145E-6	-79.186527
1.56919E-6	-81.074046
1.569235E-6	-80.242466
1.56928E-6	-80.94312
1.569325E-6	-80.355989
1.56937E-6	-78.551146
1.569415E-6	-74.929541
1.56946E-6	-72.142432
1.569505E-6	-71.087972
1.56955E-6	-70.659563
1.569595E-6	-70.667152
1.56964E-6	-70.715017
1.569685E-6	-70.812883
1.56973E-6	-70.784176
1.569775E-6	-71.041356
1.56982E-6	-72.091521
1.569865E-6	-74.502613
1.56991E-6	-77.670039
1.569955E-6	-81.526124
1.57E-6	-80.56555
